time,seconds_elapsed,z,y,x
1753234909096237300,0.0542373046875,1.1786317825317383,0.09744119644165039,0.04022258520126343
1753234909112268800,0.070268798828125,0.19564151763916016,0.49163132905960083,-0.009505867958068848
1753234909128296700,0.086296630859375,-0.650634765625,0.5048410892486572,-0.10810838639736176
1753234909144305000,0.102304931640625,-0.8479375839233398,0.2603871822357178,-0.0037954747676849365
1753234909160289300,0.118289306640625,-0.6605005264282227,0.1137840747833252,0.19740647077560425
1753234909176270600,0.1342705078125,-0.2056865692138672,-0.0000921487808227539,0.33059969544410706
1753234909192330800,0.150330810546875,0.16105175018310547,-0.004887700080871582,0.23105299472808838
1753234909208324600,0.16632470703125,0.3863792419433594,0.04297816753387451,0.06940871477127075
1753234909224337000,0.1823369140625,0.23157596588134766,0.03672909736633301,-0.189386248588562
1753234909240369000,0.198368896484375,0.2691822052001953,0.011016249656677246,-0.32046711444854736
1753234909256389000,0.21438916015625,0.4563331604003906,0.04624330997467041,0.02152162790298462
1753234909272446200,0.2304462890625,0.3524942398071289,0.038861989974975586,0.3663053810596466
1753234909288438500,0.2464384765625,0.10021018981933594,0.04249131679534912,0.3702431917190552
1753234909304493800,0.262493896484375,-0.016884803771972656,0.13457047939300537,0.08742612600326538
1753234909320480000,0.27847998046875,0.03154182434082031,-0.040635108947753906,-0.032336294651031494
1753234909336500700,0.294500732421875,-0.08424663543701172,-0.07944989204406738,-0.15465790033340454
1753234909352558800,0.310558837890625,-0.27051258087158203,0.060059189796447754,-0.3148854970932007
1753234909368592100,0.326592041015625,-0.22731685638427734,-0.004517078399658203,-0.29988712072372437
1753234909384603000,0.342602783203125,-0.0027561187744140625,-0.037975430488586426,-0.04554331302642822
1753234909400586000,0.3585859375,0.27561092376708984,0.029645204544067383,0.26658421754837036
1753234909416610000,0.374610107421875,0.45642566680908203,-0.10323476791381836,0.34155845642089844
1753234909432667000,0.3906669921875,0.411102294921875,-0.14561080932617188,0.1392645239830017
1753234909448658700,0.40665869140625,-0.07602310180664062,-0.048705101013183594,-0.05875450372695923
1753234909464668400,0.42266845703125,-0.5010042190551758,0.17192137241363525,0.0018180012702941895
1753234909480702700,0.43870263671875,-0.20953083038330078,0.22769665718078613,0.15005481243133545
1753234909496682500,0.4546826171875,0.3030271530151367,0.004384517669677734,0.03684663772583008
1753234909512740400,0.470740234375,0.47571372985839844,-0.06318354606628418,0.031939178705215454
1753234909528736300,0.486736328125,0.36990833282470703,-0.05249190330505371,-0.051598966121673584
1753234909544793900,0.5027939453125,0.07422065734863281,0.0018825531005859375,0.07092747092247009
1753234909560781300,0.51878125,-0.2214508056640625,0.13753879070281982,0.21036964654922485
1753234909576802800,0.534802734375,-0.12564373016357422,0.11612284183502197,0.1802990436553955
1753234909592860400,0.5508603515625,0.21092700958251953,-0.013203024864196777,0.1608627438545227
1753234909608895500,0.5668955078125,0.4497556686401367,-0.06512141227722168,0.059969812631607056
1753234909624905700,0.58290576171875,0.26407432556152344,-0.0009566545486450195,-0.18613113462924957
1753234909640891600,0.5988916015625,-0.016399383544921875,0.015376091003417969,-0.009566575288772583
1753234909656871000,0.614870849609375,-0.24428939819335938,-0.01896071434020996,0.18526208400726318
1753234909672926500,0.630926513671875,-0.3848400115966797,0.00805354118347168,0.21509462594985962
1753234909688920300,0.64692041015625,-0.1277322769165039,0.053411126136779785,0.12912079691886902
1753234909704930000,0.662929931640625,0.3413209915161133,0.003834962844848633,0.04568570852279663
1753234909720962600,0.678962646484375,0.7584095001220703,0.01528775691986084,-0.021067380905151367
1753234909736981200,0.694981201171875,0.5742282867431641,-0.04473114013671875,-0.09162682294845581
1753234909753040400,0.711040283203125,0.010973930358886719,-0.03297114372253418,0.0448853075504303
1753234909769036000,0.7270361328125,-0.29859161376953125,0.12117016315460205,0.027544885873794556
1753234909785092000,0.743092041015625,-0.17157649993896484,0.09729790687561035,-0.06861099600791931
1753234909801075500,0.759075439453125,0.11736392974853516,0.08054900169372559,0.018299788236618042
1753234909817049600,0.775049560546875,0.05952167510986328,-0.024090170860290527,0.11107844114303589
1753234909833107700,0.791107666015625,-0.19630813598632812,-0.09781444072723389,0.13497084379196167
1753234909849144800,0.807144775390625,-0.4328765869140625,-0.1069105863571167,0.10123738646507263
1753234909865199600,0.82319970703125,-0.4044513702392578,-0.04163503646850586,0.017506062984466553
1753234909881185800,0.839185791015625,0.05617713928222656,0.011049747467041016,0.12048587203025818
1753234909897212200,0.855212158203125,0.6356668472290039,0.10424399375915527,0.1415439248085022
1753234909913270500,0.8712705078125,0.7464666366577148,0.037216782569885254,0.048268795013427734
1753234909929268000,0.88726806640625,0.4469919204711914,0.07743847370147705,0.0016098320484161377
1753234909945280800,0.90328076171875,0.02880573272705078,0.08333790302276611,-0.001584380865097046
1753234909961318400,0.919318359375,0.0077800750732421875,0.10865592956542969,0.005886644124984741
1753234909977298400,0.93529833984375,0.29781341552734375,0.12009334564208984,-0.028948336839675903
1753234909993360600,0.951360595703125,0.42794132232666016,0.019928455352783203,0.22321036458015442
1753234910009358600,0.967358642578125,0.28590869903564453,0.004077553749084473,0.23750445246696472
1753234910025420300,0.983420166015625,-0.1166982650756836,-0.05673694610595703,0.05960395932197571
1753234910041402400,0.99940234375,-0.31897926330566406,0.009495139122009277,-0.05922779440879822
1753234910057419500,1.01541943359375,-0.24921321868896484,0.02302849292755127,-0.06667119264602661
1753234910073476000,1.03147607421875,-0.03872108459472656,-0.09843158721923828,0.07939475774765015
1753234910089510000,1.047510009765625,0.009222984313964844,-0.10841357707977295,0.08152109384536743
1753234910105521000,1.06352099609375,-0.09611892700195312,-0.09166240692138672,0.19159430265426636
1753234910121506800,1.0795068359375,-0.11352920532226562,0.06399321556091309,0.017335563898086548
1753234910137487000,1.095487060546875,0.009708404541015625,0.009290814399719238,-0.15822401642799377
1753234910153544400,1.11154443359375,0.13982009887695312,0.047443389892578125,-0.08799204230308533
1753234910169535000,1.127534912109375,0.20331287384033203,0.12740468978881836,0.0004832744598388672
1753234910185542100,1.143542236328125,0.17672348022460938,0.03039097785949707,0.15383309125900269
1753234910201566200,1.159566162109375,0.18160152435302734,-0.001979231834411621,0.17699339985847473
1753234910217583600,1.17558349609375,0.18637847900390625,0.03130972385406494,0.043933719396591187
1753234910233640000,1.191639892578125,0.17894363403320312,0.059392452239990234,-0.0940728485584259
1753234910249630200,1.207630126953125,0.16898536682128906,0.06382560729980469,-0.048066526651382446
1753234910265685200,1.223685302734375,0.0872507095336914,0.0021005868911743164,0.022745996713638306
1753234910281669600,1.239669677734375,-0.049294471740722656,-0.05597424507141113,0.09090125560760498
1753234910297645600,1.2556455078125,-0.0875253677368164,-0.06787669658660889,0.17264455556869507
1753234910313703700,1.27170361328125,0.03931427001953125,-0.02254509925842285,0.16005301475524902
1753234910329745200,1.2877451171875,0.15644168853759766,0.022492527961730957,0.034356653690338135
1753234910345757200,1.303757080078125,0.005390167236328125,0.07936811447143555,-0.013492375612258911
1753234910361742300,1.319742431640625,-0.03085803985595703,0.028280019760131836,-0.07241758704185486
1753234910377771000,1.33577099609375,0.08130359649658203,-0.0019083023071289062,-0.018826574087142944
1753234910393831200,1.3518310546875,0.08609485626220703,0.030527591705322266,-0.018279284238815308
1753234910409822000,1.367822021484375,0.14852428436279297,0.05209839344024658,0.05142325162887573
1753234910425833700,1.383833740234375,0.1916666030883789,0.08861291408538818,0.08430927991867065
1753234910441870800,1.399870849609375,0.1627979278564453,0.041236162185668945,0.0885317325592041
1753234910457848800,1.415848876953125,0.06457996368408203,0.009797334671020508,0.0812784731388092
1753234910473906700,1.43190673828125,-0.04559326171875,-0.03802025318145752,0.10599514842033386
1753234910489900800,1.44790087890625,-0.03629016876220703,-0.016605854034423828,-0.004442274570465088
1753234910505956900,1.463956787109375,0.11885452270507812,0.08796250820159912,0.06426802277565002
1753234910521941200,1.479941162109375,0.2144184112548828,0.09951579570770264,0.13257485628128052
1753234910537963300,1.49596337890625,0.173858642578125,-0.04557502269744873,0.05217844247817993
1753234910554022000,1.51202197265625,0.11662864685058594,-0.012776732444763184,-0.04675948619842529
1753234910570060000,1.52806005859375,0.143157958984375,-0.007933378219604492,-0.16866591572761536
1753234910586072000,1.544072021484375,0.1650218963623047,0.04509711265563965,-0.12461373209953308
1753234910602058500,1.56005859375,0.18217754364013672,0.11002326011657715,0.09965023398399353
1753234910618039800,1.576039794921875,0.15390777587890625,0.1383277177810669,0.23843598365783691
1753234910634100000,1.592099853515625,0.209197998046875,-0.024324774742126465,0.14419794082641602
1753234910650094800,1.6080947265625,0.27167797088623047,-0.05396580696105957,0.0029231607913970947
1753234910666108200,1.624108154296875,0.22226619720458984,-0.018155217170715332,-0.09108319878578186
1753234910682144500,1.64014453125,0.12080669403076172,0.023800969123840332,-0.04576098918914795
1753234910698168800,1.6561689453125,-0.05249595642089844,0.010998249053955078,0.06632435321807861
1753234910714231300,1.672231201171875,-0.19990253448486328,-0.033234238624572754,0.15404611825942993
1753234910730259500,1.688259521484375,-0.2235107421875,-0.15464937686920166,0.1448574662208557
1753234910746315800,1.704315673828125,-0.12318706512451172,-0.1745460033416748,0.09344223141670227
1753234910762302000,1.720302001953125,-0.12122058868408203,-0.13460958003997803,-0.07826724648475647
1753234910778279000,1.73627880859375,-0.045070648193359375,-0.0478823184967041,-0.19835330545902252
1753234910794337500,1.752337646484375,0.0764780044555664,0.07256114482879639,-0.1046648621559143
1753234910810376200,1.768376220703125,0.21961593627929688,0.08087098598480225,0.039434969425201416
1753234910826421200,1.784421142578125,0.3293914794921875,0.06001138687133789,0.1843177080154419
1753234910842411500,1.80041162109375,0.3223438262939453,-0.05032932758331299,0.11054784059524536
1753234910858441700,1.816441650390625,0.10523414611816406,0.02323758602142334,-0.01182478666305542
1753234910874503000,1.8325029296875,-0.16701316833496094,0.03365445137023926,-0.0031827688217163086
1753234910890498800,1.848498779296875,-0.10719585418701172,-0.022994279861450195,0.01170244812965393
1753234910906510600,1.864510498046875,0.11751079559326172,-0.0067594051361083984,0.11625483632087708
1753234910922593000,1.880593017578125,0.31368350982666016,-0.016835451126098633,0.14004606008529663
1753234910938575400,1.896575439453125,0.31883907318115234,-0.021611571311950684,0.1372966170310974
1753234910954636300,1.91263623046875,0.10426139831542969,0.016860604286193848,0.04598751664161682
1753234910970628600,1.928628662109375,-0.16293907165527344,0.019158005714416504,-0.06203565001487732
1753234910986734000,1.944734130859375,-0.36345481872558594,0.05640077590942383,-0.09985095262527466
1753234911002719000,1.960718994140625,-0.23212718963623047,0.039859771728515625,-0.07105502486228943
1753234911018738400,1.976738525390625,0.04194164276123047,-0.016648054122924805,0.006267577409744263
1753234911034798300,1.99279833984375,0.3422698974609375,-0.04145169258117676,0.0528833270072937
1753234911050835500,2.00883544921875,0.4614076614379883,-0.04560399055480957,0.029818713665008545
1753234911066849800,2.024849853515625,0.22254562377929688,0.003282904624938965,0.05455318093299866
1753234911082838800,2.0408388671875,-0.1594715118408203,0.07903265953063965,0.02131664752960205
1753234911098824700,2.05682470703125,-0.2620410919189453,0.10948562622070312,-0.028219789266586304
1753234911114886000,2.072885986328125,-0.013764381408691406,0.1241689920425415,-0.04865512251853943
1753234911130881800,2.0888818359375,0.3441495895385742,0.018152952194213867,0.00747758150100708
1753234911146893600,2.1048935546875,0.37454986572265625,-0.010371088981628418,0.04047951102256775
1753234911162929200,2.12092919921875,0.11418819427490234,0.06443595886230469,0.029384851455688477
1753234911178951400,2.136951416015625,-0.08328628540039062,0.09477698802947998,0.02417457103729248
1753234911195006500,2.15300634765625,-0.14257049560546875,0.13455605506896973,0.10928913950920105
1753234911211044400,2.16904443359375,0.1226654052734375,0.08808505535125732,0.0737716555595398
1753234911227102200,2.185102294921875,0.35652637481689453,0.03996109962463379,0.04720044136047363
1753234911243090200,2.201090087890625,0.3492851257324219,0.1044607162475586,-0.0536494255065918
1753234911259067400,2.2170673828125,0.175506591796875,0.0759119987487793,-0.05079907178878784
1753234911275124000,2.2331240234375,-0.10807228088378906,0.10748767852783203,-0.029991954565048218
1753234911291159600,2.24915966796875,-0.22004032135009766,0.0969916582107544,-0.0211104154586792
1753234911307197000,2.265197021484375,0.040223121643066406,0.058449506759643555,0.010167062282562256
1753234911323180800,2.281180908203125,0.40297508239746094,-0.013486146926879883,0.03297963738441467
1753234911339206400,2.297206298828125,0.4937171936035156,0.04705631732940674,-0.008505582809448242
1753234911355264800,2.3132646484375,0.2174243927001953,0.09904289245605469,-0.010353714227676392
1753234911371257900,2.3292578125,-0.2518901824951172,0.013356924057006836,0.023737937211990356
1753234911387268900,2.345268798828125,-0.5708932876586914,-0.025894522666931152,0.014901310205459595
1753234911403304700,2.3613046875,-0.4488544464111328,0.000586390495300293,-0.11796903610229492
1753234911419285500,2.377285400390625,-0.1318674087524414,-0.0689462423324585,0.02021154761314392
1753234911435351000,2.39335107421875,0.3306550979614258,0.0006906986236572266,-0.08862939476966858
1753234911451348500,2.409348388671875,0.4828815460205078,0.07862985134124756,-0.13618303835391998
1753234911467409200,2.4254091796875,0.26542091369628906,0.12802302837371826,-0.06834939122200012
1753234911483396900,2.44139697265625,-0.004296302795410156,0.11445832252502441,-0.03394603729248047
1753234911499427600,2.457427490234375,-0.09253692626953125,0.07020056247711182,-0.0060971081256866455
1753234911515491000,2.473490966796875,0.11083030700683594,-0.010595560073852539,0.024318069219589233
1753234911531532800,2.48953271484375,0.35958385467529297,-0.05182671546936035,0.07433155179023743
1753234911547547100,2.505547119140625,0.3074321746826172,0.018287062644958496,0.11126160621643066
1753234911563535600,2.52153564453125,-0.012030601501464844,0.07027673721313477,-0.00747072696685791
1753234911579518700,2.537518798828125,-0.19266128540039062,0.046568870544433594,-0.013668328523635864
1753234911595528700,2.55352880859375,-0.17060279846191406,0.015089631080627441,0.047164350748062134
1753234911611522800,2.569522705078125,0.0036840438842773438,-0.031712889671325684,0.11930626630783081
1753234911627534600,2.58553466796875,0.05802154541015625,-0.020476698875427246,0.07162678241729736
1753234911643569000,2.60156884765625,0.09809303283691406,0.0042188167572021484,-0.06851893663406372
1753234911659593200,2.61759326171875,0.04494667053222656,0.01639878749847412,0.002025514841079712
1753234911675608600,2.633608642578125,0.07094097137451172,0.006409049034118652,-0.08195492625236511
1753234911691624700,2.649624755859375,0.13302898406982422,0.01523292064666748,-0.0982130914926529
1753234911707684000,2.66568408203125,0.19762039184570312,-0.014578104019165039,0.0033546388149261475
1753234911723670500,2.68167041015625,0.18337440490722656,0.027957558631896973,0.0068753063678741455
1753234911739653400,2.6976533203125,0.044737815856933594,0.08143162727355957,0.006540834903717041
1753234911755715300,2.71371533203125,-0.02943706512451172,0.09778082370758057,0.0451621413230896
1753234911771755800,2.729755859375,0.03031635284423828,0.026385068893432617,0.08474412560462952
1753234911787800000,2.745800048828125,0.07336139678955078,-0.03352558612823486,-0.01649332046508789
1753234911803788300,2.761788330078125,0.1764049530029297,-0.05124950408935547,-0.05599701404571533
1753234911819815700,2.777815673828125,0.20533180236816406,-0.07692837715148926,-0.009309649467468262
1753234911835875000,2.793875,0.035805702209472656,0.017954230308532715,-0.060039252042770386
1753234911851872800,2.809872802734375,-0.18878746032714844,0.0679248571395874,-0.04603308439254761
1753234911867887600,2.8258876953125,-0.22992706298828125,0.04288077354431152,0.050158530473709106
1753234911883925000,2.841925048828125,-0.061081886291503906,0.02027416229248047,-0.014977723360061646
1753234911899909000,2.8579091796875,0.14374637603759766,-0.0023865699768066406,-0.05775713920593262
1753234911915973000,2.87397314453125,0.21742725372314453,-0.0810626745223999,0.06233549118041992
1753234911931976400,2.8899765625,0.17201709747314453,-0.030681252479553223,0.11950403451919556
1753234911948041500,2.90604150390625,0.0837697982788086,0.08949458599090576,0.026251763105392456
1753234911964032300,2.9220322265625,0.08143901824951172,0.04837298393249512,0.0691385269165039
1753234911980062500,2.9380625,0.05959796905517578,0.052333831787109375,0.0068933069705963135
1753234911996124200,2.954124267578125,0.1258525848388672,0.0673598051071167,-0.07303187251091003
1753234912012164000,2.9701640625,0.18736743927001953,-0.017806291580200195,0.019157350063323975
1753234912028175000,2.986175048828125,0.18238258361816406,0.010714530944824219,0.10503813624382019
1753234912044162600,3.00216259765625,0.0750570297241211,0.08777427673339844,0.06713762879371643
1753234912060147500,3.0181474609375,-0.1256732940673828,0.09520018100738525,0.02373325824737549
1753234912076209200,3.034209228515625,-0.16174888610839844,0.049689650535583496,0.061936259269714355
1753234912092206600,3.05020654296875,-0.018805503845214844,0.0029850006103515625,-0.09898816049098969
1753234912108218000,3.066218017578125,0.0687875747680664,-0.014374852180480957,-0.10992036759853363
1753234912124252000,3.082251953125,0.1661539077758789,0.03531146049499512,-0.05219900608062744
1753234912140276000,3.09827587890625,0.17545127868652344,0.07041299343109131,0.022207200527191162
1753234912156337000,3.1143369140625,0.11329174041748047,0.0807884931564331,0.11727893352508545
1753234912172357000,3.130357177734375,0.039200782775878906,0.10584163665771484,0.0800386369228363
1753234912188415000,3.1464150390625,0.04871845245361328,0.10949993133544922,-0.021808534860610962
1753234912204402000,3.16240185546875,0.024687767028808594,0.10724568367004395,-0.038939595222473145
1753234912220390000,3.178389892578125,0.053253173828125,0.09268903732299805,0.07483690977096558
1753234912236449000,3.194448974609375,0.107940673828125,0.022742033004760742,0.10087418556213379
1753234912252486000,3.21048583984375,0.14561748504638672,0.02324390411376953,0.010606557130813599
1753234912268525800,3.22652587890625,0.17130470275878906,0.0397946834564209,-0.05251482129096985
1753234912284509200,3.24250927734375,0.1397571563720703,0.06192636489868164,0.04430091381072998
1753234912300534000,3.258533935546875,0.04889678955078125,0.049021005630493164,0.10181427001953125
1753234912316595200,3.27459521484375,-0.07509803771972656,0.04969668388366699,0.061941325664520264
1753234912332593200,3.29059326171875,-0.15384483337402344,0.08243656158447266,-0.04151397943496704
1753234912348606700,3.306606689453125,-0.24035072326660156,0.09323501586914062,-0.1280476152896881
1753234912364689400,3.322689453125,-0.028573036193847656,0.06973850727081299,-0.199638232588768
1753234912380670500,3.33867041015625,0.2619895935058594,0.0678718090057373,-0.08927008509635925
1753234912396728000,3.35472802734375,0.3617734909057617,0.06559741497039795,0.01637810468673706
1753234912412725200,3.370725341796875,0.17038822174072266,0.060498952865600586,0.025178849697113037
1753234912428785000,3.386784912109375,-0.032764434814453125,0.08827471733093262,0.015220105648040771
1753234912444770800,3.402770751953125,-0.01842212677001953,0.10897767543792725,-0.052884459495544434
1753234912460804900,3.418804931640625,0.09618759155273438,0.09871518611907959,-0.09805187582969666
1753234912476836600,3.434836669921875,0.17250823974609375,0.08702552318572998,-0.08261585235595703
1753234912492870400,3.450870361328125,0.13172054290771484,0.07214879989624023,-0.03189888596534729
1753234912508882000,3.4668818359375,-0.0021724700927734375,0.05719602108001709,0.060799628496170044
1753234912524865000,3.482864990234375,-0.1098947525024414,0.0758059024810791,0.03833949565887451
1753234912540847400,3.498847412109375,-0.09823131561279297,0.09633302688598633,-0.017709165811538696
1753234912556952000,3.5149521484375,0.004103660583496094,0.05275249481201172,0.020200639963150024
1753234912572947200,3.530947265625,0.11340522766113281,0.05252230167388916,-0.036085158586502075
1753234912588959700,3.546959716796875,0.24660205841064453,0.06795132160186768,-0.03566095232963562
1753234912604994600,3.56299462890625,0.2913970947265625,0.05989229679107666,0.08631053566932678
1753234912621016300,3.579016357421875,0.19069194793701172,0.14385318756103516,0.01091092824935913
1753234912637076200,3.595076171875,0.004206657409667969,0.14191198348999023,-0.0865001380443573
1753234912653104600,3.611104736328125,-0.16791343688964844,0.10721945762634277,-0.1458151936531067
1753234912669160700,3.62716064453125,-0.1704273223876953,0.026609301567077637,-0.07819861173629761
1753234912685143000,3.64314306640625,0.001251220703125,0.0046683549880981445,-0.032052040100097656
1753234912701135000,3.659135009765625,0.15347576141357422,0.04007363319396973,0.04600843787193298
1753234912717194500,3.675194580078125,0.26020050048828125,0.14145874977111816,0.0013773143291473389
1753234912733235500,3.6912353515625,0.2619037628173828,0.12954318523406982,-0.007667958736419678
1753234912749265000,3.707264892578125,0.13473987579345703,0.17885589599609375,0.014325976371765137
1753234912765251800,3.723251953125,0.034270286560058594,0.10858643054962158,0.05310028791427612
1753234912781280300,3.7392802734375,-0.034913063049316406,0.033112406730651855,0.05503341555595398
1753234912797340400,3.75534033203125,-0.05131721496582031,0.1204988956451416,0.08252459764480591
1753234912813334000,3.771333984375,-0.15166759490966797,0.06962478160858154,0.09309756755828857
1753234912829347600,3.78734765625,-0.30742549896240234,-0.011095523834228516,0.02272680401802063
1753234912845378000,3.8033779296875,-0.19814300537109375,0.07142782211303711,0.03368338942527771
1753234912861353700,3.819353759765625,0.07805728912353516,0.08096468448638916,0.02425539493560791
1753234912877414400,3.835414306640625,0.25127696990966797,0.079170823097229,-0.06036481261253357
1753234912893409500,3.851409423828125,0.28143787384033203,0.11885464191436768,-0.11208395659923553
1753234912909465300,3.86746533203125,0.2356576919555664,0.20983660221099854,-0.08070194721221924
1753234912925450000,3.883449951171875,0.09709930419921875,0.24693989753723145,-0.005417227745056152
1753234912941499400,3.89949951171875,-0.09600830078125,0.24361824989318848,0.005836576223373413
1753234912957557200,3.91555712890625,-0.18363666534423828,0.2784513235092163,-0.03878721594810486
1753234912973592000,3.931592041015625,-0.1328258514404297,0.20305883884429932,0.020337671041488647
1753234912989601800,3.947601806640625,0.07301807403564453,0.14489054679870605,0.0328311026096344
1753234913005582600,3.96358251953125,0.1566781997680664,0.14884936809539795,-0.011717408895492554
1753234913021564000,3.97956396484375,0.013402938842773438,0.2054765224456787,0.01970088481903076
1753234913037621200,3.995621337890625,-0.21565628051757812,0.2129368782043457,0.02349582314491272
1753234913053614300,4.0116142578125,-0.3109550476074219,0.17203140258789062,-0.0347876250743866
1753234913069625600,4.02762548828125,-0.18907737731933594,0.13904118537902832,-0.1425047218799591
1753234913085614300,4.0436142578125,0.01607799530029297,0.11707830429077148,-0.15028904378414154
1753234913101639200,4.05963916015625,0.0778055191040039,0.21493899822235107,-0.16346541047096252
1753234913117698000,4.075697998046875,-0.06569480895996094,0.21647095680236816,-0.17736279964447021
1753234913133714000,4.0917138671875,-0.16343212127685547,0.297055721282959,-0.22646820545196533
1753234913149771000,4.10777099609375,-0.2731657028198242,0.2614462375640869,-0.13057872653007507
1753234913165757200,4.123757080078125,-0.0792703628540039,0.2400960922241211,0.001440584659576416
1753234913181757400,4.13975732421875,0.10736846923828125,0.27778542041778564,0.19176393747329712
1753234913197815000,4.15581494140625,0.09852027893066406,0.354641318321228,0.3345056474208832
1753234913213847800,4.171847900390625,0.040332794189453125,0.3898524045944214,0.2997722029685974
1753234913229908000,4.187907958984375,-0.32573986053466797,0.40447890758514404,0.302837073802948
1753234913245892600,4.203892578125,-0.4502096176147461,0.3710516691207886,0.15470808744430542
1753234913261916000,4.219916015625,-0.20379924774169922,0.46707332134246826,-0.028810083866119385
1753234913277971000,4.235970947265625,-0.09344482421875,0.41419923305511475,0.10254481434822083
1753234913293963300,4.25196337890625,-0.1593313217163086,0.4975709915161133,0.43260490894317627
1753234913310020600,4.2680205078125,-0.37506103515625,0.6256041526794434,0.4898624122142792
1753234913326051000,4.284051025390625,-0.6529531478881836,0.64552903175354,0.3580538034439087
1753234913342024700,4.300024658203125,-0.7788095474243164,0.7267218828201294,0.2809913456439972
1753234913358079000,4.316078857421875,-0.3941068649291992,0.8979138135910034,0.3620855212211609
1753234913374067200,4.332067138671875,0.17847728729248047,1.1011348962783813,0.4987911880016327
1753234913390119700,4.34811962890625,0.5155057907104492,1.3151298761367798,0.5944507122039795
1753234913406103600,4.364103515625,0.598876953125,1.5072726011276245,0.4113357663154602
1753234913422158600,4.38015869140625,0.3372468948364258,1.5238205194473267,0.12777632474899292
1753234913438215000,4.39621484375,-0.043247222900390625,1.5361287593841553,0.0620846152305603
1753234913454248200,4.412248291015625,-0.48969459533691406,1.419998049736023,0.1459101438522339
1753234913470260200,4.42826025390625,-1.121809959411621,1.1949231624603271,0.2007860541343689
1753234913486246100,4.44424609375,-1.5650901794433594,1.183582067489624,0.06354221701622009
1753234913502230800,4.460230712890625,-1.6848878860473633,1.0741796493530273,-0.01870596408843994
1753234913518289200,4.4762890625,-1.5410575866699219,0.9722212553024292,-0.01279747486114502
1753234913534283300,4.492283203125,-1.3280925750732422,1.0046848058700562,-0.09093165397644043
1753234913550295000,4.508294921875,-1.1878395080566406,1.0285760164260864,-0.2528553605079651
1753234913566329300,4.524329345703125,-0.9801206588745117,0.9283304214477539,-0.09965698421001434
1753234913582354400,4.5403544921875,-0.6301507949829102,0.886440634727478,-0.76835036277771
1753234913598414000,4.5564140625,0.10877323150634766,1.513482928276062,-0.3521484434604645
1753234913614427000,4.572427001953125,0.50225830078125,1.4393861293792725,-0.2839035391807556
1753234913630531300,4.58853125,1.098989486694336,1.455371618270874,-0.39160555601119995
1753234913646516700,4.604516845703125,1.5264949798583984,1.464215636253357,-0.5895055532455444
1753234913662527700,4.62052783203125,1.7996492385864258,1.3121240139007568,-0.6621026396751404
1753234913678567400,4.6365673828125,2.5264854431152344,1.197942852973938,-0.3815630376338959
1753234913694591700,4.652591796875,3.3634796142578125,1.198140025138855,-0.03626200556755066
1753234913710631400,4.66863134765625,3.5357284545898438,1.2932769060134888,0.17819055914878845
1753234913726601500,4.6846015625,3.0602025985717773,1.046996831893921,0.3154844343662262
1753234913742628400,4.70062841796875,2.250802993774414,0.42710959911346436,0.3402789235115051
1753234913758666500,4.71666650390625,1.8594417572021484,0.07350659370422363,0.44667848944664
1753234913774659300,4.732659423828125,1.886408805847168,-0.06612753868103027,0.4765149652957916
1753234913790653200,4.748653076171875,2.3119735717773438,-0.22638189792633057,0.29284024238586426
1753234913806647000,4.76464697265625,2.577578544616699,-0.5578440427780151,0.252690851688385
1753234913822623500,4.78062353515625,2.983053207397461,-0.8358161449432373,0.34971243143081665
1753234913838664400,4.79666455078125,2.8739013671875,-0.9291775226593018,0.008198708295822144
1753234913854643700,4.812643798828125,2.2436418533325195,-1.0957798957824707,-0.5683679580688477
1753234913870702000,4.8287021484375,0.7526130676269531,-1.3663105964660645,-1.0401873588562012
1753234913886674000,4.844673828125,-0.49996280670166016,-1.5398962497711182,-1.0752322673797607
1753234913902729700,4.860729736328125,-1.0346193313598633,-1.6384503841400146,-0.9311363697052002
1753234913918781700,4.87678173828125,-1.19677734375,-1.6339187622070312,-1.200129508972168
1753234913934810000,4.89281005859375,-1.495366096496582,-1.61212158203125,-1.5272923707962036
1753234913950818300,4.908818359375,-1.1195993423461914,-1.8269619941711426,-2.407247304916382
1753234913966805000,4.924804931640625,-0.23233413696289062,-1.6836903095245361,-1.2508281469345093
1753234913982787300,4.940787353515625,0.18558692932128906,-1.1009224653244019,-0.6027950644493103
1753234913998847700,4.95684765625,-0.0042400360107421875,-0.8869621753692627,-0.12374955415725708
1753234914014842400,4.97284228515625,-0.5896615982055664,-0.8923652172088623,-0.07363316416740417
1753234914030857000,4.98885693359375,-1.7454876899719238,-0.8785936832427979,-0.5020120143890381
1753234914046873600,5.00487353515625,-2.7509799003601074,-0.7491029500961304,-0.7987105846405029
1753234914062895600,5.0208955078125,-3.229645252227783,-0.4832727909088135,-0.6450930833816528
1753234914078939600,5.036939697265625,-2.601016044616699,-0.1597764492034912,-0.5320169925689697
1753234914094924000,5.052924072265625,-1.297755241394043,-0.16916155815124512,-0.39588111639022827
1753234914110966500,5.068966552734375,-0.5959720611572266,-0.18705177307128906,-0.6690510511398315
1753234914126943000,5.08494287109375,-0.9879856109619141,-0.21232271194458008,-1.0202059745788574
1753234914142957000,5.10095703125,-1.5457777976989746,-0.186600923538208,-0.9796945452690125
1753234914159005400,5.11700537109375,-1.710902214050293,0.020902633666992188,-0.9502976536750793
1753234914175031000,5.133031005859375,-1.1096172332763672,0.168992280960083,-0.7385329008102417
1753234914191073000,5.149072998046875,-0.11251258850097656,0.5487759113311768,-0.47153425216674805
1753234914207057000,5.165056884765625,1.3581962585449219,0.6818487644195557,-0.2871122658252716
1753234914223081700,5.181081787109375,2.5263967514038086,0.42302894592285156,0.23581212759017944
1753234914239081700,5.197081787109375,2.999500274658203,0.46573424339294434,0.8563368916511536
1753234914255059500,5.2130595703125,2.963369369506836,0.5504021644592285,0.8918492197990417
1753234914271050000,5.229050048828125,2.5274057388305664,0.24298405647277832,0.41861432790756226
1753234914287069000,5.24506884765625,2.0600337982177734,-0.08039093017578125,-0.03385692834854126
1753234914303044900,5.261044921875,1.7867326736450195,-0.26460838317871094,0.24151796102523804
1753234914319102500,5.2771025390625,1.6910667419433594,-0.4527883529663086,0.9213312268257141
1753234914335094300,5.29309423828125,1.7056989669799805,-0.6131367683410645,0.9588876962661743
1753234914351148000,5.30914794921875,1.741652488708496,-0.9465551376342773,0.5333063006401062
1753234914367132000,5.3251318359375,1.7931785583496094,-1.2324862480163574,-0.33532753586769104
1753234914383206400,5.341206298828125,1.9763221740722656,-1.5231095552444458,-0.6078009009361267
1753234914399261700,5.35726171875,1.684000015258789,-1.8606760501861572,-0.418535977602005
1753234914415292700,5.373292724609375,0.7330684661865234,-2.0582692623138428,-0.549873948097229
1753234914431305000,5.389304931640625,-0.3340606689453125,-2.1054015159606934,-0.6736950874328613
1753234914447281000,5.405281005859375,-1.500199794769287,-2.3696346282958984,-0.1372746229171753
1753234914463262200,5.42126220703125,-2.746325969696045,-2.552748441696167,0.10682380199432373
1753234914479300400,5.43730029296875,-3.283402442932129,-2.3310329914093018,0.014772772789001465
1753234914495279900,5.45327978515625,-2.424297332763672,-1.7665307521820068,-0.026953473687171936
1753234914511269400,5.469269287109375,-1.6510100364685059,-1.3825156688690186,-0.315818727016449
1753234914527300400,5.48530029296875,-1.0132503509521484,-0.9854543209075928,-0.5817255973815918
1753234914543318800,5.50131884765625,-0.5780477523803711,-0.783828616142273,-0.5190656185150146
1753234914559364900,5.51736474609375,-0.6045083999633789,-0.7438044548034668,-0.1415511965751648
1753234914575357700,5.533357666015625,-1.0103673934936523,-0.45167291164398193,0.2297796607017517
1753234914591408400,5.549408447265625,-1.2264881134033203,-0.19804394245147705,0.5599545240402222
1753234914607388000,5.565387939453125,-1.9455642700195312,-0.08543312549591064,0.5234618782997131
1753234914623362000,5.581362060546875,-2.256500720977783,0.010760188102722168,0.2754531502723694
1753234914639398000,5.59739794921875,-1.8791747093200684,0.006522417068481445,0.27175086736679077
1753234914655434200,5.613434326171875,-1.159470558166504,-0.10895609855651855,0.683152973651886
1753234914671448300,5.6294482421875,-0.6711854934692383,-0.11878049373626709,0.42096975445747375
1753234914687432200,5.64543212890625,-0.4876985549926758,0.13971424102783203,0.0679180920124054
1753234914703458000,5.6614580078125,-0.06277656555175781,0.41126251220703125,-0.11633067578077316
1753234914719516000,5.677515869140625,0.7201604843139648,0.5530903339385986,0.16612178087234497
1753234914735537400,5.693537353515625,1.5240707397460938,0.4785914421081543,0.31047123670578003
1753234914751547400,5.70954736328125,2.038302421569824,0.3738369941711426,0.11277399957180023
1753234914767565300,5.7255654296875,2.149099349975586,0.28025388717651367,-0.13802513480186462
1753234914783541000,5.741541015625,2.382761001586914,0.13207507133483887,-0.31356939673423767
1753234914799583200,5.757583251953125,3.3768348693847656,0.17680978775024414,-0.6909283995628357
1753234914815563000,5.77356298828125,4.52439022064209,0.23495173454284668,-0.6326049566268921
1753234914831601700,5.7896015625,4.796331405639648,-0.21204161643981934,-0.2600812613964081
1753234914847571000,5.805571044921875,4.485597610473633,-0.6715472936630249,-0.06806735694408417
1753234914863589000,5.821589111328125,3.825179100036621,-1.117143154144287,0.14000189304351807
1753234914879626800,5.837626708984375,3.205744743347168,-1.5217787027359009,0.34466472268104553
1753234914895648300,5.853648193359375,2.4816532135009766,-1.6919517517089844,0.3681821823120117
1753234914911649800,5.86964990234375,1.9147958755493164,-1.559454321861267,0.26684820652008057
1753234914927626500,5.88562646484375,1.2750272750854492,-1.7609974145889282,-0.16307547688484192
1753234914943608800,5.90160888671875,0.18249130249023438,-2.143078327178955,-0.6916055679321289
1753234914959655400,5.917655517578125,-1.305588722229004,-2.2511203289031982,-1.1888030767440796
1753234914975635700,5.9336357421875,-2.528717517852783,-2.092331647872925,-1.5050835609436035
1753234914991625000,5.949625,-2.330510139465332,-1.9552944898605347,-1.2326842546463013
1753234915007640000,5.96564013671875,-1.5247526168823242,-1.8697062730789185,-0.3515408933162689
1753234915023657700,5.98165771484375,-1.0884113311767578,-1.4866539239883423,0.6149898767471313
1753234915039715600,5.997715576171875,-1.6329808235168457,-1.1476753950119019,0.7876964211463928
1753234915055709400,6.01370947265625,-2.478278636932373,-1.0843112468719482,0.18319770693778992
1753234915071743500,6.029743408203125,-3.047910690307617,-0.9014047384262085,-0.28601473569869995
1753234915087712000,6.0457119140625,-3.368335723876953,-0.6406725645065308,-0.2208186388015747
1753234915103683000,6.06168310546875,-3.372039794921875,-0.5807013511657715,-0.4806962013244629
1753234915119721200,6.07772119140625,-3.050900459289551,-0.5455706119537354,-0.33012649416923523
1753234915135742200,6.0937421875,-2.918515682220459,-0.515999436378479,0.07203283905982971
1753234915151735800,6.10973583984375,-2.6079955101013184,-0.6460413932800293,-0.07717179507017136
1753234915167702000,6.125701904296875,-1.5751762390136719,-0.48133230209350586,-0.4045846462249756
1753234915183723500,6.1417236328125,-0.41008949279785156,-0.2151496410369873,-0.41057002544403076
1753234915199761000,6.157760986328125,0.7159957885742188,-0.17228341102600098,-0.20421543717384338
1753234915215746800,6.173746826171875,1.1665668487548828,-0.08117556571960449,0.2327437698841095
1753234915239758600,6.197758544921875,1.6329460144042969,-0.09294843673706055,0.26557204127311707
1753234915255799000,6.213799072265625,2.275033950805664,-0.30325865745544434,0.8999906778335571
1753234915271838000,6.229837890625,3.333439826965332,-0.44978833198547363,0.5594258308410645
1753234915287809800,6.245809814453125,4.018050193786621,-0.42795228958129883,0.09167072176933289
1753234915303831300,6.261831298828125,3.878957748413086,-0.38319897651672363,-0.02601999044418335
1753234915319820000,6.277820068359375,3.2739858627319336,-0.40732264518737793,0.24005714058876038
1753234915335796500,6.29379638671875,2.8990440368652344,-0.5069267749786377,0.6674995422363281
1753234915351879200,6.309879150390625,2.809046745300293,-0.8935960531234741,0.7555453777313232
1753234915367891700,6.3258916015625,2.7424497604370117,-1.105865478515625,0.03219904005527496
1753234915383872500,6.34187255859375,2.162510871887207,-1.1667968034744263,-0.5300517678260803
1753234915399885600,6.357885498046875,1.1526508331298828,-1.3440951108932495,-0.9439398646354675
1753234915415873800,6.373873779296875,0.5278701782226562,-1.624737024307251,-0.977246880531311
1753234915431939000,6.38993896484375,-0.017499923706054688,-1.8180606365203857,-0.3473009467124939
1753234915447923500,6.40592333984375,-0.36649227142333984,-2.0454118251800537,0.13538725674152374
1753234915463901400,6.4219013671875,-0.41077423095703125,-1.9973204135894775,0.3626561164855957
1753234915479909600,6.43790966796875,-0.6336584091186523,-1.701271891593933,0.6959872841835022
1753234915495949800,6.45394970703125,-0.8174581527709961,-1.3097724914550781,0.4545416235923767
1753234915512056600,6.470056640625,-1.2677898406982422,-1.0230929851531982,0.07049940526485443
1753234915528047600,6.486047607421875,-1.6463279724121094,-0.8330968618392944,-0.04070734977722168
1753234915544076500,6.50207666015625,-1.8857131004333496,-0.6684482097625732,-0.01875942200422287
1753234915560068600,6.518068603515625,-2.221433162689209,-0.5605231523513794,-0.007898718118667603
1753234915576043300,6.534043212890625,-2.7670068740844727,-0.4749455451965332,0.05627951771020889
1753234915592082400,6.55008251953125,-3.134976387023926,-0.3650432825088501,0.16848281025886536
1753234915608094200,6.56609423828125,-3.624358654022217,-0.21823203563690186,0.1151493564248085
1753234915624121900,6.582121826171875,-3.4838671684265137,-0.2146240472793579,0.22780805826187134
1753234915640114400,6.598114501953125,-2.5008468627929688,-0.1590871810913086,0.3153076171875
1753234915656091600,6.614091552734375,-1.3590364456176758,0.057147979736328125,0.0877489373087883
1753234915672178400,6.630178466796875,-0.37894439697265625,0.10845041275024414,0.007595360279083252
1753234915688153000,6.646153076171875,-0.054152488708496094,-0.00994873046875,0.49539899826049805
1753234915704131800,6.6621318359375,0.35971641540527344,0.09093475341796875,0.5977259874343872
1753234915720133000,6.678133056640625,1.2802505493164062,0.285869836807251,0.5178825259208679
1753234915736174800,6.6941748046875,2.6967573165893555,0.3592061996459961,0.25620055198669434
1753234915752184000,6.71018408203125,4.120612144470215,0.32804131507873535,-0.2899169921875
1753234915768150800,6.72615087890625,4.58831787109375,0.12559247016906738,-0.37882381677627563
1753234915784173000,6.742173095703125,4.513233184814453,0.2867915630340576,-0.3367564380168915
1753234915800165000,6.7581650390625,4.197265625,0.37102818489074707,-0.41479599475860596
1753234915816141300,6.774141357421875,3.9022207260131836,0.15951013565063477,-0.4897138476371765
1753234915832222500,6.790222412109375,3.818187713623047,-0.46767306327819824,-0.40536797046661377
1753234915848229400,6.8062294921875,3.8159446716308594,-1.3512599468231201,0.07099135220050812
1753234915864209200,6.822209228515625,3.4510040283203125,-2.067673444747925,0.22260990738868713
1753234915880196600,6.838196533203125,2.704350471496582,-2.3993148803710938,0.1253524124622345
1753234915896170200,6.854170166015625,1.5546941757202148,-2.3338663578033447,-0.43166011571884155
1753234915912207600,6.87020751953125,0.24387264251708984,-2.496062755584717,-0.8470213413238525
1753234915928175600,6.886175537109375,-0.9905147552490234,-2.520961046218872,-1.1718645095825195
1753234915944152000,6.902152099609375,-1.7568717002868652,-2.308856964111328,-1.2722423076629639
1753234915960140000,6.91814013671875,-1.5141196250915527,-2.047184467315674,-1.0911463499069214
1753234915976163300,6.934163330078125,-0.8646612167358398,-1.9118355512619019,-0.47413331270217896
1753234915992260400,6.95026025390625,-0.6201038360595703,-1.480222225189209,0.38846272230148315
1753234916008269800,6.966269775390625,-0.9676761627197266,-0.9802807569503784,0.9545328617095947
1753234916024294100,6.982294189453125,-1.9041557312011719,-0.6305569410324097,1.0290827751159668
1753234916040297500,6.99829736328125,-2.750309944152832,-0.5514073371887207,0.8113486170768738
1753234916056276000,7.01427587890625,-3.035984992980957,-0.45478808879852295,0.4555540084838867
1753234916072315100,7.030315185546875,-3.302511692047119,-0.37530064582824707,0.04264656454324722
1753234916088328000,7.046327880859375,-3.520024299621582,-0.22180986404418945,-0.32679057121276855
1753234916104305700,7.0623056640625,-3.5270791053771973,-0.19663453102111816,-0.605106770992279
1753234916120295000,7.078294921875,-3.372255802154541,-0.43934011459350586,-0.5390692353248596
1753234916136268800,7.094268798828125,-3.088703155517578,-0.46015477180480957,-0.4017992615699768
1753234916152354600,7.1103544921875,-2.6854915618896484,-0.28113269805908203,-0.5293135046958923
1753234916168323800,7.12632373046875,-1.5552430152893066,0.026891469955444336,-0.8729113936424255
1753234916184301300,7.14230126953125,0.3290872573852539,0.35269689559936523,-0.9269236326217651
1753234916200287000,7.158286865234375,2.052091598510742,0.30393004417419434,-0.6747338175773621
1753234916216306200,7.17430615234375,2.5256052017211914,0.13999080657958984,-0.2570337653160095
1753234916240293000,7.198293212890625,2.4022207260131836,0.040494680404663086,0.021897047758102417
1753234916256309800,7.214309814453125,2.5790939331054688,0.022016525268554688,0.11681398749351501
1753234916272341500,7.230341552734375,3.088253974914551,-0.22549700736999512,-0.07938000559806824
1753234916288305200,7.24630517578125,3.1622934341430664,-0.5563530921936035,0.03133711218833923
1753234916304319000,7.262319091796875,2.448847770690918,-0.6750054359436035,0.6554142236709595
1753234916320351000,7.27835107421875,1.8809137344360352,-1.008455753326416,0.921096920967102
1753234916336380400,7.29438037109375,2.285799026489258,-1.3964651823043823,0.6780493855476379
1753234916352363800,7.31036376953125,3.5040807723999023,-1.4379616975784302,0.1399315446615219
1753234916368329200,7.3263291015625,4.6974077224731445,-1.399367332458496,-0.5887166261672974
1753234916384306400,7.342306396484375,4.429263114929199,-1.4352748394012451,-1.172839641571045
1753234916400340200,7.35834033203125,2.745847702026367,-1.5196256637573242,-0.9584900736808777
1753234916416316200,7.374316162109375,0.2801837921142578,-1.7929216623306274,-0.3875458240509033
1753234916432303000,7.39030322265625,-2.0131731033325195,-1.8657573461532593,0.1550121307373047
1753234916448321300,7.4063212890625,-3.630129337310791,-1.57748544216156,0.4738432466983795
1753234916464344600,7.422344482421875,-3.98160457611084,-1.1564671993255615,0.7682543992996216
1753234916480352000,7.43835205078125,-3.0145301818847656,-1.126368761062622,0.9654884338378906
1753234916496328000,7.454327880859375,-1.6596832275390625,-0.8371057510375977,0.23210516571998596
1753234916512407300,7.4704072265625,-0.46442604064941406,-0.5278036594390869,-0.4107706546783447
1753234916528377600,7.486377685546875,-0.4222440719604492,-0.272558331489563,-0.5785819292068481
1753234916544353800,7.502353759765625,-1.1924867630004883,-0.1422652006149292,-0.3478926122188568
1753234916560402700,7.518402587890625,-2.4206089973449707,-0.31183159351348877,0.05778135359287262
1753234916576422400,7.53442236328125,-3.5462193489074707,-0.2071523666381836,0.4583199620246887
1753234916592411600,7.55041162109375,-3.9063405990600586,-0.11590802669525146,0.4839569926261902
1753234916608378400,7.56637841796875,-3.5008583068847656,-0.12350380420684814,0.36064162850379944
1753234916624398800,7.58239892578125,-3.034303665161133,0.06408953666687012,0.3155336081981659
1753234916640429000,7.598428955078125,-2.231776714324951,0.13629937171936035,0.044548600912094116
1753234916656405800,7.61440576171875,-0.34749603271484375,0.26665985584259033,0.10523372888565063
1753234916672394000,7.63039404296875,1.5305461883544922,0.2784994840621948,0.2947675883769989
1753234916688405800,7.64640576171875,2.531052589416504,0.15865576267242432,0.4106241464614868
1753234916704375300,7.662375244140625,2.723446846008301,0.1922229528427124,0.1370694488286972
1753234916720370000,7.678369873046875,2.627823829650879,0.3151814937591553,-0.23297186195850372
1753234916736346000,7.69434619140625,2.8970508575439453,0.29842066764831543,-0.5728246569633484
1753234916752378600,7.710378662109375,3.2761945724487305,0.2521357536315918,-0.5760844349861145
1753234916768340500,7.726340576171875,3.511599540710449,0.32685160636901855,-0.3234814405441284
1753234916784354800,7.742354736328125,3.6426773071289062,0.09633135795593262,0.039436742663383484
1753234916800385800,7.7583857421875,3.768526077270508,-0.38290202617645264,0.339522123336792
1753234916816401700,7.774401611328125,4.283535957336426,-1.0627813339233398,0.5704338550567627
1753234916832389600,7.7903896484375,4.858031272888184,-1.3850014209747314,0.6696019172668457
1753234916848354300,7.806354248046875,5.162405014038086,-1.4100239276885986,0.2540203630924225
1753234916864331800,7.822331787109375,4.391171455383301,-1.6702044010162354,-0.3660362958908081
1753234916880365000,7.838364990234375,2.2934789657592773,-2.0406758785247803,-0.8708977699279785
1753234916896340200,7.85434033203125,0.05064105987548828,-1.9856092929840088,-0.9810364246368408
1753234916912329000,7.870328857421875,-2.006728172302246,-1.9225767850875854,-1.2625844478607178
1753234916928338700,7.886338623046875,-3.2932615280151367,-1.8051726818084717,-1.2795648574829102
1753234916944350500,7.9023505859375,-3.3811264038085938,-1.5080809593200684,-0.7666298747062683
1753234916960383000,7.918383056640625,-2.4855079650878906,-1.0772241353988647,0.040561139583587646
1753234916976356400,7.9343564453125,-1.4744148254394531,-0.768193244934082,0.3774436414241791
1753234916992404000,7.950404052734375,-1.1990280151367188,-0.6135412454605103,0.46513664722442627
1753234917008381400,7.96638134765625,-1.5392827987670898,-0.5200190544128418,0.21191169321537018
1753234917024353500,7.982353515625,-2.24904203414917,-0.2874218225479126,-0.2525530755519867
1753234917040388000,7.99838818359375,-3.041159152984619,-0.17339718341827393,-0.2184625267982483
1753234917056406500,8.014406494140625,-3.657205581665039,-0.399570107460022,0.13177351653575897
1753234917072444000,8.03044384765625,-4.07016134262085,-0.4034390449523926,-0.10728129744529724
1753234917088412000,8.046411865234376,-4.030030250549316,-0.421159029006958,-0.20826685428619385
1753234917104433400,8.062433349609375,-3.370655059814453,-0.3685373067855835,-0.5504281520843506
1753234917120464000,8.0784638671875,-2.0441932678222656,-0.32938289642333984,-0.9569311141967773
1753234917136434700,8.0944345703125,-0.47458362579345703,-0.2410721778869629,-0.7415809631347656
1753234917152418600,8.11041845703125,0.816655158996582,-0.26708412170410156,-0.22985494136810303
1753234917168435700,8.126435791015625,1.8235158920288086,-0.3028137683868408,0.044367603957653046
1753234917184407600,8.142407470703125,2.458456039428711,-0.19931674003601074,0.1383959800004959
1753234917200417000,8.1584169921875,2.4266176223754883,-0.18989872932434082,0.24017688632011414
1753234917216440600,8.174440673828125,2.3055248260498047,-0.1545240879058838,0.2450830638408661
1753234917232477000,8.190476806640625,2.3533287048339844,-0.1865074634552002,-0.01842624321579933
1753234917248445400,8.206445556640626,2.430203437805176,-0.3576035499572754,-0.05268315225839615
1753234917264473900,8.222473876953124,2.3795957565307617,-0.6926594972610474,0.3874393701553345
1753234917280511200,8.23851123046875,2.4521102905273438,-0.7906808853149414,0.7071770429611206
1753234917296530400,8.254530517578125,3.09592342376709,-1.0608030557632446,0.33678093552589417
1753234917312524300,8.270524169921876,4.183727264404297,-1.184057593345642,-0.13234639167785645
1753234917328493600,8.28649365234375,5.122005462646484,-0.9402967691421509,-0.6891970038414001
1753234917344472300,8.302472412109376,4.9222612380981445,-1.0514960289001465,-0.7292664051055908
1753234917360507400,8.31850732421875,3.359776496887207,-1.2373206615447998,-0.49798649549484253
1753234917376483800,8.33448388671875,1.2228279113769531,-1.5895118713378906,-0.15121102333068848
1753234917392472800,8.350472900390624,-0.7887687683105469,-1.6832447052001953,0.5618577003479004
1753234917408488200,8.36648828125,-2.510190010070801,-1.468421220779419,1.0704336166381836
1753234917424506600,8.382506591796876,-3.333639621734619,-1.2631338834762573,1.106178641319275
1753234917440542500,8.39854248046875,-3.120804786682129,-1.2564892768859863,0.8495858311653137
1753234917456517400,8.414517333984374,-2.1042189598083496,-1.0732195377349854,0.4874356687068939
1753234917472551000,8.430551025390624,-0.9214725494384766,-0.7522492408752441,0.04102730005979538
1753234917488522000,8.44652197265625,-0.7393102645874023,-0.48273444175720215,0.016791537404060364
1753234917504502300,8.462502197265625,-1.5972166061401367,-0.47548913955688477,0.2398526668548584
1753234917520559400,8.478559326171874,-2.873666763305664,-0.5280030965805054,0.2712085247039795
1753234917536576500,8.494576416015626,-4.036742687225342,-0.3637946844100952,0.18328072130680084
1753234917552564200,8.510564208984375,-4.835626602172852,-0.3481711149215698,0.11077173054218292
1753234917568530000,8.526530029296875,-4.83288049697876,-0.24853718280792236,0.10816527903079987
1753234917584547300,8.54254736328125,-3.9774904251098633,-0.013418316841125488,0.2970068156719208
1753234917600583200,8.558583251953126,-2.2229366302490234,0.17482495307922363,0.4658832252025604
1753234917616557000,8.57455712890625,-0.4999675750732422,0.1723397970199585,0.24878428876399994
1753234917632545000,8.590544921875,0.1521015167236328,-0.07658708095550537,0.18706683814525604
1753234917648564500,8.606564453125,0.17239856719970703,-0.017656803131103516,0.4104412794113159
1753234917664539100,8.6225390625,0.5148105621337891,0.14333009719848633,0.2842473089694977
1753234917680582700,8.638582763671875,1.6401357650756836,0.07317912578582764,-0.0230625718832016
1753234917696605700,8.654605712890625,3.1940488815307617,0.15660440921783447,-0.15719357132911682
1753234917712646100,8.670646240234374,4.509425163269043,0.1462554931640625,-0.30802762508392334
1753234917728615200,8.686615234375,5.026071548461914,-0.17439568042755127,-0.3596038818359375
1753234917744664600,8.70266455078125,4.479549407958984,-0.21121299266815186,-0.6473225355148315
1753234917760691200,8.718691162109375,3.758920669555664,-0.7074551582336426,-0.5083780884742737
1753234917776710100,8.734710205078125,3.7853126525878906,-1.379670262336731,0.32787907123565674
1753234917792748300,8.750748291015626,4.680377006530762,-1.371428370475769,1.0273834466934204
1753234917808715300,8.76671533203125,5.786428451538086,-1.2435468435287476,0.6190330982208252
1753234917824693000,8.78269287109375,5.658071517944336,-1.1931453943252563,-0.26927128434181213
1753234917840730000,8.798730224609375,3.5350990295410156,-1.3978009223937988,-0.8372257947921753
1753234917856705300,8.814705322265626,0.8481540679931641,-1.5604877471923828,-0.7798669338226318
1753234917872689200,8.830689208984374,-1.7856221199035645,-1.6062673330307007,-0.7354704141616821
1753234917888704500,8.84670458984375,-3.3352456092834473,-1.5473225116729736,-0.39930662512779236
1753234917904726800,8.862726806640625,-3.6701064109802246,-1.6557486057281494,-0.3090076446533203
1753234917920763000,8.878762939453125,-2.4752469062805176,-1.4535993337631226,0.5506589412689209
1753234917936739800,8.89473974609375,-1.2385215759277344,-0.9397459030151367,0.9539651870727539
1753234917952774400,8.9107744140625,-0.6687164306640625,-0.6480171084403992,0.6901657581329346
1753234917968746800,8.926746826171875,-1.105626106262207,-0.5152897834777832,0.02909800410270691
1753234917984743700,8.94274365234375,-1.907491683959961,-0.19078385829925537,-0.32124194502830505
1753234918000798700,8.958798828125,-2.9515304565429688,-0.25281822681427,-0.06425708532333374
1753234918016815400,8.9748154296875,-3.8358912467956543,-0.30899131298065186,-0.056433260440826416
1753234918032800500,8.990800537109376,-4.467267036437988,-0.20552027225494385,-0.04084697365760803
1753234918048765700,9.006765625,-4.2321882247924805,-0.02019679546356201,0.019725754857063293
1753234918064786200,9.0227861328125,-3.028475761413574,-0.0988929271697998,-0.36895087361335754
1753234918080823000,9.038822998046875,-1.5270500183105469,-0.2085963487625122,-0.7388220429420471
1753234918096805600,9.0548056640625,-0.07895374298095703,0.02791309356689453,-0.5367960929870605
1753234918112849000,9.070848876953125,1.1915159225463867,0.2571229934692383,-0.23383116722106934
1753234918128872700,9.086872802734375,1.9311771392822266,0.15016388893127441,-0.5082265734672546
1753234918144850700,9.1028505859375,2.2435550689697266,-0.020366191864013672,-0.4389534890651703
1753234918160863200,9.11886328125,1.9950189590454102,-0.001382589340209961,-0.06635555624961853
1753234918176900900,9.13490087890625,1.7559003829956055,0.08673381805419922,-0.06554564088582993
1753234918192955600,9.15095556640625,2.1926164627075195,0.09333252906799316,0.16441181302070618
1753234918208925700,9.16692578125,3.0488290786743164,-0.12439131736755371,0.2536543011665344
1753234918224943400,9.182943359375,3.741018295288086,-0.3253861665725708,0.2573360800743103
1753234918240982300,9.198982177734376,3.8684844970703125,-0.4466428756713867,0.41484642028808594
1753234918257002200,9.215002197265624,3.6640567779541016,-0.4681398868560791,0.7115833759307861
1753234918272993300,9.2309931640625,3.736985206604004,-0.7746050357818604,0.9608364701271057
1753234918288966000,9.2469658203125,3.1286182403564453,-1.1109496355056763,0.4973222613334656
1753234918304950300,9.2629501953125,1.5251226425170898,-1.25673508644104,-0.403590589761734
1753234918320991700,9.27899169921875,0.20998573303222656,-1.4768850803375244,-1.1991785764694214
1753234918336977200,9.29497705078125,-0.13538837432861328,-1.9724910259246826,-0.6821926236152649
1753234918352978700,9.310978759765625,-0.047469139099121094,-2.100966691970825,0.014424681663513184
1753234918369005000,9.327005126953125,-0.04060554504394531,-1.9795085191726685,0.48278284072875977
1753234918385027600,9.343027587890624,-0.4999866485595703,-1.761934518814087,0.7893507480621338
1753234918401088000,9.359087890625,-0.8478298187255859,-1.4437154531478882,0.6177077889442444
1753234918417114600,9.375114501953124,-1.2374067306518555,-1.0415010452270508,0.0801977589726448
1753234918433172500,9.39117236328125,-1.4903240203857422,-0.6957424879074097,-0.36920103430747986
1753234918449157600,9.40715771484375,-1.97186279296875,-0.5463298559188843,-0.4001525044441223
1753234918465167000,9.4231669921875,-2.965149402618408,-0.49474501609802246,-0.4702005982398987
1753234918481206300,9.439206298828125,-3.7695083618164062,-0.3648148775100708,-0.7755957841873169
1753234918497229800,9.455229736328125,-4.208899021148682,-0.18250703811645508,-0.49958181381225586
1753234918513303300,9.47130322265625,-4.4359965324401855,-0.11747181415557861,-0.15776297450065613
1753234918529271000,9.48727099609375,-4.41179084777832,-0.03077566623687744,0.015628501772880554
1753234918545292500,9.50329248046875,-4.034855365753174,0.028820395469665527,0.22425448894500732
1753234918561329000,9.519328857421876,-3.2845215797424316,0.15117740631103516,0.0952966958284378
1753234918577307100,9.53530712890625,-2.4014062881469727,0.10794854164123535,0.11269377171993256
1753234918593291500,9.55129150390625,-1.082594871520996,0.14769768714904785,0.31857746839523315
1753234918609309700,9.567309814453125,0.13476943969726562,0.1510465145111084,0.9242082834243774
1753234918625287200,9.583287109375,1.3527421951293945,0.28005313873291016,0.9640322327613831
1753234918641321200,9.5993212890625,2.1442995071411133,0.5449051856994629,1.0837035179138184
1753234918657327000,9.6153271484375,2.67092227935791,0.649160623550415,0.5747020244598389
1753234918673363700,9.63136376953125,3.243504524230957,0.5996153354644775,0.10347476601600647
1753234918689331700,9.647331787109374,4.2837629318237305,0.7661681175231934,-0.33376210927963257
1753234918705386500,9.663386474609375,5.302742004394531,1.2566461563110352,-0.9889028072357178
1753234918721425400,9.67942529296875,5.8414306640625,1.381737470626831,-1.055792212486267
1753234918737449500,9.695449462890625,5.573020935058594,0.8658874034881592,-0.7006598711013794
1753234918753440800,9.711440673828125,5.22152042388916,0.030935287475585938,-0.3592204451560974
1753234918769408500,9.727408447265624,4.78055477142334,-1.0302115678787231,0.5100409984588623
1753234918785387300,9.74338720703125,4.2194976806640625,-1.5577235221862793,0.24008217453956604
1753234918801424000,9.759423828125,3.4385547637939453,-1.9619375467300415,-0.6076068878173828
1753234918817402400,9.77540234375,2.070749282836914,-2.3809220790863037,-1.4079852104187012
1753234918833390800,9.791390869140624,0.06717491149902344,-2.6480283737182617,-1.3419784307479858
1753234918849407200,9.8074072265625,-1.9607634544372559,-2.508955240249634,-1.2364749908447266
1753234918865425000,9.8234248046875,-3.21144437789917,-2.182408571243286,-1.1912819147109985
1753234918881461800,9.839461669921874,-3.328691005706787,-1.9890825748443604,-0.8854957818984985
1753234918897438500,9.8554384765625,-2.7041449546813965,-1.971323847770691,-0.17866098880767822
1753234918913476900,9.871476806640626,-1.545802116394043,-1.664292335510254,0.19868379831314087
1753234918929457700,9.887457763671875,-0.910731315612793,-1.2018473148345947,0.35263240337371826
1753234918945475300,9.903475341796875,-1.2333850860595703,-0.7099020481109619,0.40778377652168274
1753234918961526500,9.919526611328125,-2.0237436294555664,-0.2908586263656616,0.2110871821641922
1753234918977548800,9.935548828125,-2.864717483520508,0.05635631084442139,0.12316751480102539
1753234918993540000,9.9515400390625,-3.5917272567749023,0.01248633861541748,-0.05650314688682556
1753234919009508000,9.967508056640625,-4.17514705657959,-0.0743330717086792,0.06745222210884094
1753234919025533700,9.98353369140625,-4.622744083404541,0.026660442352294922,-0.017728447914123535
1753234919041571000,9.999571044921876,-4.410377025604248,0.05086326599121094,-0.04949863255023956
1753234919057547300,10.01554736328125,-3.0469956398010254,-0.11474752426147461,0.03707260638475418
1753234919073536300,10.031536376953126,-1.177556037902832,-0.043335676193237305,0.05573977530002594
1753234919089553700,10.0475537109375,0.5980339050292969,0.4149448871612549,-0.17593945562839508
1753234919105531400,10.063531494140625,2.54390811920166,0.7229428291320801,-0.3821865916252136
1753234919121569000,10.079569091796875,3.5288829803466797,0.35112714767456055,0.036091506481170654
1753234919137577000,10.095576904296875,3.532271385192871,0.13419842720031738,0.5058611631393433
1753234919153612800,10.11161279296875,2.9529428482055664,0.16361260414123535,0.17742881178855896
1753234919169580500,10.12758056640625,2.4241819381713867,0.10964679718017578,-0.17272627353668213
1753234919185594000,10.143593994140625,2.337906837463379,-0.01886272430419922,-0.5627024173736572
1753234919201627400,10.15962744140625,2.5235891342163086,-0.16118788719177246,-0.241864413022995
1753234919217644000,10.17564404296875,2.730757713317871,-0.4750162363052368,0.4271107614040375
1753234919233633800,10.1916337890625,2.699747085571289,-0.7785155773162842,0.6070412993431091
1753234919249600300,10.207600341796875,3.063633918762207,-0.9497754573822021,0.22634726762771606
1753234919265576700,10.22357666015625,4.135927200317383,-1.1058599948883057,-0.31130969524383545
1753234919281609000,10.23960888671875,4.752220153808594,-1.0682506561279297,-0.5580113530158997
1753234919297582800,10.255582763671875,3.7989587783813477,-1.030761480331421,-0.9665490388870239
1753234919313568800,10.27156884765625,1.7190675735473633,-1.3494517803192139,-1.02531898021698
1753234919329586000,10.2875859375,-0.35891056060791016,-1.6807581186294556,-0.4341355860233307
1753234919345603800,10.303603759765625,-2.042133331298828,-1.8375294208526611,0.28853562474250793
1753234919361639000,10.319638916015625,-3.0635814666748047,-1.7380120754241943,0.8420775532722473
1753234919377616400,10.335616455078124,-3.0212254524230957,-1.4787487983703613,1.1159611940383911
1753234919393649700,10.351649658203126,-2.1753616333007812,-1.204338788986206,0.9077993035316467
1753234919409629200,10.367629150390625,-1.2481956481933594,-0.8904294967651367,0.35882768034935
1753234919425595000,10.383594970703125,-0.9519405364990234,-0.5486600399017334,-0.09169499576091766
1753234919441644500,10.39964453125,-1.3856935501098633,-0.40545356273651123,-0.12932956218719482
1753234919457671000,10.4156708984375,-1.9904351234436035,-0.2252882719039917,-0.03252295404672623
1753234919473654500,10.431654541015625,-2.78055477142334,-0.24416399002075195,0.03973941504955292
1753234919489616000,10.447615966796874,-3.6524405479431152,-0.2342543601989746,0.18349799513816833
1753234919505634600,10.463634521484375,-4.237486839294434,-0.09706521034240723,0.1537017822265625
1753234919521668000,10.479668212890624,-4.162281036376953,-0.0038700103759765625,0.38912051916122437
1753234919537644000,10.49564404296875,-3.622675895690918,0.2679096460342407,0.5492712259292603
1753234919553631200,10.51163134765625,-2.8629846572875977,0.41935300827026367,0.4491775631904602
1753234919569644800,10.527644775390625,-2.043484687805176,0.473103404045105,0.07896572351455688
1753234919585616600,10.54361669921875,-0.847956657409668,0.49175357818603516,-0.0026889145374298096
1753234919601653200,10.5596533203125,0.48384761810302734,0.25286829471588135,0.37664926052093506
1753234919617631200,10.57563134765625,1.8097314834594727,0.01825547218322754,0.5848538875579834
1753234919633663700,10.591663818359375,2.600388526916504,0.18545985221862793,0.4988638162612915
1753234919649628400,10.60762841796875,2.9408082962036133,0.5605559349060059,0.19373644888401031
1753234919665671200,10.623671142578125,3.182511329650879,0.6918354034423828,0.08101342618465424
1753234919681705700,10.639705810546875,3.599285125732422,0.6078382730484009,-0.2727404832839966
1753234919697724000,10.655723876953125,3.9292001724243164,0.5697044134140015,-0.7569416165351868
1753234919713714700,10.671714599609375,4.029901504516602,0.5234348773956299,-0.7764692902565002
1753234919729682700,10.6876826171875,4.324016571044922,0.1533195972442627,-0.32432833313941956
1753234919745664000,10.7036640625,5.029034614562988,-0.5238792896270752,0.13540779054164886
1753234919761700900,10.719700927734374,5.467994689941406,-1.3174166679382324,0.698983371257782
1753234919777678300,10.73567822265625,4.89665412902832,-1.8101346492767334,0.5094497203826904
1753234919793669400,10.75166943359375,3.517549514770508,-1.8713420629501343,-0.035829007625579834
1753234919809691400,10.76769140625,1.5956315994262695,-2.026428699493408,-0.4828614592552185
1753234919825709600,10.78370947265625,-0.26107120513916016,-2.049510955810547,-0.7120541930198669
1753234919841746700,10.79974658203125,-1.6440515518188477,-2.034020185470581,-0.787348210811615
1753234919857725200,10.81572509765625,-2.387430191040039,-1.856597661972046,-0.5729497075080872
1753234919873758000,10.831758056640625,-2.015376567840576,-1.5242037773132324,-0.10427212715148926
1753234919889741600,10.847741455078125,-1.4219770431518555,-1.2908904552459717,0.3378066420555115
1753234919905713400,10.86371337890625,-1.2825851440429688,-0.9101964235305786,0.45580393075942993
1753234919921767700,10.879767578125,-1.5577239990234375,-0.5100574493408203,0.5490444898605347
1753234919937799700,10.895799560546875,-1.9563050270080566,-0.2428981065750122,0.472525417804718
1753234919953789700,10.911789794921875,-2.455913543701172,-0.1252530813217163,0.5271240472793579
1753234919969757000,10.9277568359375,-2.9971208572387695,-0.10665011405944824,0.4368099570274353
1753234919985775400,10.943775390625,-3.5878491401672363,0.0166776180267334,0.2505270540714264
1753234920001807000,10.95980712890625,-4.07996129989624,0.07100927829742432,0.15121132135391235
1753234920017780000,10.975780029296875,-4.132277965545654,0.13024234771728516,-0.14265656471252441
1753234920033763300,10.991763427734375,-3.6165385246276855,0.22210657596588135,-0.5164272785186768
1753234920049778000,11.00777783203125,-2.7020153999328613,0.2855290174484253,-0.8312712907791138
1753234920065752600,11.023752685546874,-1.8254404067993164,0.24832117557525635,-0.7857131958007812
1753234920081800700,11.03980078125,-0.6845531463623047,0.5548257827758789,-0.514297604560852
1753234920097782500,11.055782470703125,0.3307342529296875,0.7057459354400635,-0.23700979351997375
1753234920113826600,11.07182666015625,1.3741846084594727,0.4344818592071533,0.09664313495159149
1753234920129792500,11.08779248046875,2.7869138717651367,0.1061556339263916,0.37243226170539856
1753234920145835300,11.103835205078125,3.3703813552856445,0.13895606994628906,0.48260271549224854
1753234920161869600,11.11986962890625,3.5855255126953125,0.27630615234375,-0.08085654675960541
1753234920177888300,11.13588818359375,3.4502782821655273,0.0976712703704834,-0.5933786630630493
1753234920193924900,11.1519248046875,2.928278923034668,-0.22792363166809082,-0.7136914730072021
1753234920209892900,11.167892822265625,2.479670524597168,-0.4916412830352783,-0.26433712244033813
1753234920225873200,11.183873046875,2.5752811431884766,-0.6700756549835205,-0.23528999090194702
1753234920241907500,11.199907470703126,3.9700469970703125,-0.5681476593017578,-0.5822189450263977
1753234920257886000,11.215885986328125,6.120952606201172,-0.4400196075439453,-0.5179706811904907
1753234920273873400,11.231873291015624,6.336010932922363,-0.9918224215507507,0.008511550724506378
1753234920289889500,11.2478896484375,4.02781867980957,-0.9588475227355957,0.00026880577206611633
1753234920305906700,11.26390673828125,1.3642768859863281,-0.9326848387718201,-0.7494973540306091
1753234920321940000,11.27993994140625,-1.1400890350341797,-1.3486987352371216,-0.27192381024360657
1753234920337913600,11.29591357421875,-3.2408061027526855,-1.5582358837127686,0.4828483462333679
1753234920353946600,11.311946533203125,-4.149407386779785,-1.3086576461791992,0.8909532427787781
1753234920369910500,11.32791064453125,-3.0647974014282227,-1.095634937286377,0.9880850911140442
1753234920385880800,11.343880859375,-1.6341171264648438,-0.8977946639060974,0.8375765681266785
1753234920401915600,11.35991552734375,-0.5398464202880859,-0.5772942304611206,0.21252375841140747
1753234920417935600,11.375935546875,-0.26616859436035156,-0.5565441846847534,-0.23546139895915985
1753234920433929700,11.3919296875,-1.350417137145996,-0.40433943271636963,-0.2310047298669815
1753234920449895400,11.4078955078125,-2.7492403984069824,-0.3272194266319275,-0.3004104197025299
1753234920465916400,11.42391650390625,-4.067357063293457,-0.4512048363685608,0.17425784468650818
1753234920481922000,11.439922119140626,-4.91262674331665,-0.20304477214813232,0.36942851543426514
1753234920497891800,11.455891845703125,-5.61129903793335,0.08259272575378418,0.16958028078079224
1753234920513875000,11.471875,-5.202985763549805,0.3078571557998657,-0.5327006578445435
1753234920529889000,11.487888916015624,-4.261600494384766,0.43704676628112793,-0.7381621599197388
1753234920545861600,11.503861572265626,-2.4310879707336426,0.5629297494888306,-0.17681407928466797
1753234920561898500,11.5198984375,-0.5092782974243164,0.7466170787811279,0.11011861264705658
1753234920577907500,11.535907470703124,1.2749004364013672,0.7094852924346924,0.2726617157459259
1753234920593991700,11.55199169921875,2.6354217529296875,0.44355857372283936,0.2030262053012848
1753234920609963000,11.567962890625,2.6170759201049805,0.14300715923309326,0.04778221249580383
1753234920625983500,11.5839833984375,2.3901519775390625,0.306097149848938,-0.1538446545600891
1753234920641997300,11.599997314453125,2.1878089904785156,0.3945523500442505,-0.4815445840358734
1753234920658017300,11.616017333984376,2.3835020065307617,0.36162376403808594,-1.036186933517456
1753234920674010600,11.6320107421875,3.102114677429199,0.2975214719772339,-1.4068255424499512
1753234920689976600,11.6479765625,4.238865852355957,0.3315209150314331,-1.0366209745407104
1753234920705952300,11.6639521484375,4.370624542236328,0.1726604700088501,-0.04027333855628967
1753234920721987300,11.6799873046875,3.691370964050293,-0.4310537576675415,0.06813442707061768
1753234920737967600,11.695967529296874,3.578127861022949,-1.3693645000457764,0.4604145586490631
1753234920753956900,11.711956787109376,4.136120796203613,-1.749588131904602,0.43347328901290894
1753234920769972000,11.727971923828125,4.661460876464844,-1.9188743829727173,-0.10553646087646484
1753234920785988000,11.743988037109375,3.9048376083374023,-1.8977915048599243,-0.6214108467102051
1753234920802020400,11.760020263671874,2.0536766052246094,-1.841506004333496,-0.9181002974510193
1753234920818023700,11.776023681640625,-0.30108642578125,-1.881068468093872,-0.9146480560302734
1753234920834056000,11.792055908203125,-2.3783979415893555,-1.9851784706115723,-1.007162094116211
1753234920850018600,11.8080185546875,-3.3688268661499023,-2.070002794265747,-1.06825590133667
1753234920865988600,11.823988525390625,-2.9291768074035645,-1.796599268913269,-0.5685700178146362
1753234920882022700,11.840022705078125,-1.601944923400879,-1.2688047885894775,0.27371376752853394
1753234920898052000,11.856052001953126,-0.5974273681640625,-0.6203665137290955,0.608049750328064
1753234920914066200,11.872066162109375,-0.6108455657958984,-0.035505056381225586,0.5548300743103027
1753234920930044400,11.88804443359375,-1.5616331100463867,0.22915184497833252,0.4140232801437378
1753234920946066200,11.904066162109375,-2.6846060752868652,0.33712542057037354,0.3107028901576996
1753234920962102000,11.92010205078125,-3.9762320518493652,0.27673637866973877,0.4490114152431488
1753234920978079200,11.936079345703124,-4.766287803649902,0.09799349308013916,0.48060786724090576
1753234920994066200,11.952066162109375,-4.772099018096924,0.13986468315124512,0.3753682076931
1753234921010081000,11.9680810546875,-4.142730236053467,0.1753922700881958,-0.05635485053062439
1753234921026056000,11.984055908203125,-3.217379570007324,-0.017381906509399414,-0.40864312648773193
1753234921042092800,12.0000927734375,-1.8906545639038086,0.14100611209869385,-0.4438764452934265
1753234921058122200,12.016122314453124,0.024231910705566406,0.4159156084060669,-0.7613564729690552
1753234921074160000,12.03216015625,1.6257829666137695,0.3785668611526489,-0.7784156203269958
1753234921090127400,12.04812744140625,2.004711151123047,0.25196003913879395,-0.5405275821685791
1753234921106143700,12.064143798828125,2.0446367263793945,0.22907578945159912,-0.05336286872625351
1753234921122157300,12.0801572265625,2.3698253631591797,0.3070017099380493,0.35563796758651733
1753234921138169000,12.096169189453125,3.384152412414551,0.3787189722061157,0.4535159468650818
1753234921154205200,12.112205078125,4.443113327026367,0.15431976318359375,0.38610678911209106
1753234921170171100,12.128171142578125,4.646603584289551,-0.09907472133636475,0.10568167269229889
1753234921186147600,12.144147705078124,4.015673637390137,-0.4111964702606201,0.3904641270637512
1753234921202180000,12.16018017578125,3.2125282287597656,-0.7702751755714417,0.752128541469574
1753234921218152400,12.17615234375,3.052583694458008,-1.056665062904358,0.5151203274726868
1753234921234136300,12.19213623046875,3.5950098037719727,-1.2235960960388184,0.21193262934684753
1753234921250149600,12.208149658203125,3.992422103881836,-0.862876296043396,-0.08052849769592285
1753234921266165000,12.2241650390625,3.696666717529297,-0.8685906529426575,-0.39315852522850037
1753234921282199600,12.240199462890626,1.8853340148925781,-1.337420105934143,-0.40306270122528076
1753234921298172700,12.256172607421876,-0.5042848587036133,-1.7846885919570923,0.018947675824165344
1753234921314203400,12.272203369140625,-2.4741315841674805,-1.8924810886383057,0.5252450704574585
1753234921330167800,12.288167724609375,-3.6186680793762207,-1.8906559944152832,0.8350257873535156
1753234921346138000,12.30413818359375,-3.655933380126953,-1.6123274564743042,1.1944772005081177
1753234921362166800,12.320166748046875,-2.3500027656555176,-1.1968486309051514,1.468825101852417
1753234921378181400,12.336181396484376,-0.7376308441162109,-0.6820034980773926,0.8352460265159607
1753234921394213000,12.352213134765625,-0.037876129150390625,-0.15203291177749634,-0.012325689196586609
1753234921410179600,12.3681796875,-0.1691875457763672,0.10162413120269775,-0.5429704785346985
1753234921426198000,12.384197998046876,-1.395608901977539,-0.04220008850097656,-0.6771032214164734
1753234921442249200,12.400249267578126,-2.8570895195007324,0.08314681053161621,-0.5439238548278809
1753234921458224600,12.416224609375,-4.192840099334717,0.4976249933242798,-0.014917910099029541
1753234921474210600,12.43221044921875,-4.794079780578613,0.7425915002822876,0.12931552529335022
1753234921490223900,12.448223876953126,-4.527770519256592,0.7511078119277954,0.2744969129562378
1753234921506191600,12.464191650390624,-3.4210376739501953,0.6167283058166504,0.19202741980552673
1753234921522223900,12.480223876953126,-1.9695634841918945,0.5067050457000732,-0.006360352039337158
1753234921538202000,12.4962021484375,-0.5952873229980469,0.501947283744812,-0.03293728828430176
1753234921554233300,12.5122333984375,0.8062620162963867,0.5322370529174805,-0.05187332630157471
1753234921570202400,12.528202392578125,1.3884010314941406,0.6211031675338745,0.46480488777160645
1753234921586222300,12.544222412109375,1.358464241027832,0.6314774751663208,0.5069230794906616
1753234921602264800,12.560264892578125,1.5206642150878906,0.5780832767486572,0.27465981245040894
1753234921618326300,12.576326171875,2.257150650024414,0.746345043182373,-0.008621573448181152
1753234921634315500,12.5923154296875,2.721158027648926,0.5031477212905884,-0.4109918773174286
1753234921650279000,12.60827880859375,3.288890838623047,0.22134709358215332,-0.8228605389595032
1753234921666253600,12.624253662109375,4.212688446044922,0.09168505668640137,-0.764056921005249
1753234921682286600,12.64028662109375,5.031388282775879,0.1825087070465088,-0.4446215331554413
1753234921698259200,12.65625927734375,5.071329116821289,0.12171876430511475,-0.3262099027633667
1753234921714243600,12.67224365234375,4.715836524963379,-0.5650995969772339,-0.1729777455329895
1753234921730254800,12.6882548828125,4.144281387329102,-1.4443572759628296,-0.011534005403518677
1753234921746271500,12.704271484375,3.120713233947754,-1.9967557191848755,0.25188374519348145
1753234921762307000,12.72030712890625,1.6080780029296875,-2.1487984657287598,0.07439771294593811
1753234921778280700,12.73628076171875,0.11875152587890625,-2.177337408065796,-0.35202381014823914
1753234921794314800,12.752314697265625,-1.4421319961547852,-2.335866689682007,-0.6892865300178528
1753234921810283500,12.768283447265626,-2.507394313812256,-2.3520569801330566,-0.8561758995056152
1753234921826265600,12.784265625,-2.5437893867492676,-2.3208866119384766,-0.9701555967330933
1753234921842303500,12.800303466796874,-1.5843286514282227,-1.907575011253357,-0.022329390048980713
1753234921858330600,12.81633056640625,-0.5043830871582031,-1.2071526050567627,0.6746021509170532
1753234921874332000,12.832331787109375,-0.23087024688720703,-0.8188289403915405,0.5328269600868225
1753234921890314800,12.848314697265625,-0.9013814926147461,-0.5836484432220459,0.2958904504776001
1753234921906338600,12.864338623046875,-2.1680564880371094,-0.2935469150543213,0.2143169641494751
1753234921922375200,12.880375244140625,-3.4233274459838867,-0.020653247833251953,0.049903422594070435
1753234921938351400,12.896351318359375,-3.919780731201172,0.11561381816864014,-0.0008155405521392822
1753234921954337500,12.912337646484374,-3.885240077972412,0.003068089485168457,-0.020876586437225342
1753234921970355700,12.928355712890625,-3.6107730865478516,0.0018291473388671875,-0.10167717933654785
1753234921986333000,12.9443330078125,-3.571700096130371,0.02069723606109619,0.11452420055866241
1753234922002371300,12.960371337890624,-3.0493063926696777,0.16501891613006592,0.24364782869815826
1753234922018347300,12.97634716796875,-2.3389296531677246,0.09851682186126709,-0.3507153391838074
1753234922034392300,12.992392333984375,-1.135563850402832,0.17857468128204346,-1.0555932521820068
1753234922050363100,13.008363037109374,0.1770162582397461,0.4629528522491455,-0.9340675473213196
1753234922066386400,13.024386474609376,1.2599754333496094,0.6131939888000488,-0.5293407440185547
1753234922082421800,13.040421875,1.6376628875732422,0.6433497667312622,-0.267413854598999
1753234922098454800,13.056454833984375,1.800654411315918,0.48419904708862305,-0.12801721692085266
1753234922114445300,13.0724453125,2.128141403198242,0.28699791431427,0.023849405348300934
1753234922130410000,13.088409912109375,2.6660585403442383,0.16230010986328125,-0.022268056869506836
1753234922146386200,13.10438623046875,3.4330387115478516,0.24074029922485352,-0.009861432015895844
1753234922162419200,13.120419189453125,3.9271020889282227,0.15351951122283936,0.24853765964508057
1753234922178395400,13.1363955078125,3.728865623474121,-0.13822555541992188,0.6987291574478149
1753234922194382600,13.152382568359375,3.0350990295410156,0.022659897804260254,0.7275720238685608
1753234922210398700,13.168398681640625,2.4695310592651367,0.10449624061584473,0.36781227588653564
1753234922226417200,13.184417236328125,2.781743049621582,-0.2279278039932251,-0.12541896104812622
1753234922242453200,13.200453369140625,3.2719221115112305,-0.584750235080719,-0.44245702028274536
1753234922258429400,13.216429443359376,3.040614128112793,-0.6743506193161011,-0.4051749110221863
1753234922274464500,13.232464599609376,2.168123245239258,-0.9161705374717712,-0.24184876680374146
1753234922290439700,13.248439697265624,0.7446393966674805,-1.448954701423645,0.04298223555088043
1753234922306426000,13.264426025390625,-0.6974363327026367,-1.6902358531951904,0.17996662855148315
1753234922322460700,13.280460693359375,-2.0264148712158203,-1.5653400421142578,0.604151725769043
1753234922338476800,13.296476806640625,-2.7060608863830566,-1.4008235931396484,1.0539685487747192
1753234922354464500,13.312464599609376,-2.304989814758301,-1.1115163564682007,0.5915441513061523
1753234922370445800,13.32844580078125,-1.4006147384643555,-0.7906591296195984,-0.02046385407447815
1753234922386469600,13.3444697265625,-0.8687772750854492,-0.5837193727493286,-0.527945876121521
1753234922402528000,13.360528076171875,-0.7080144882202148,-0.3645022511482239,-0.6549174785614014
1753234922418517000,13.37651708984375,-1.0956764221191406,-0.12757086753845215,-0.1563515067100525
1753234922434523600,13.392523681640625,-2.112812042236328,0.13901114463806152,0.01443512737751007
1753234922450538800,13.408538818359375,-3.323119640350342,0.2587956190109253,-0.05709001421928406
1753234922466514000,13.424513916015625,-3.984616279602051,0.3316134214401245,0.06001800298690796
1753234922482553300,13.44055322265625,-4.241277694702148,0.40719592571258545,0.22453072667121887
1753234922498532000,13.456531982421875,-4.01018762588501,0.6808346509933472,0.2063463032245636
1753234922514566100,13.472566162109375,-2.9472055435180664,0.8473336696624756,-0.04591172933578491
1753234922530539000,13.4885390625,-1.392465591430664,0.7202688455581665,-0.11319369077682495
1753234922546569500,13.504569580078124,0.12530994415283203,0.6054494380950928,0.04249221086502075
1753234922562603500,13.520603515625,1.0426406860351562,0.4674135446548462,0.587729811668396
1753234922578628400,13.53662841796875,1.5472726821899414,0.534325361251831,0.4185826778411865
1753234922594630400,13.55263037109375,1.7894906997680664,0.3901689052581787,-0.06853049993515015
1753234922610615600,13.568615478515625,2.123567581176758,0.189436674118042,-0.30905890464782715
1753234922626623700,13.584623779296875,2.548739433288574,0.12757647037506104,-0.5400475859642029
1753234922642657800,13.60065771484375,2.972982406616211,0.048795342445373535,-0.6192620396614075
1753234922658636300,13.61663623046875,3.245791435241699,0.08199048042297363,-0.5957923531532288
1753234922674631700,13.632631591796875,3.4048261642456055,-0.07876467704772949,-0.5160776972770691
1753234922690648300,13.6486484375,3.138214111328125,-0.7879745364189148,-0.021664977073669434
1753234922706671400,13.66467138671875,3.1135997772216797,-1.5187944173812866,0.7781417369842529
1753234922722710000,13.6807099609375,4.110893249511719,-1.4948768615722656,1.1763198375701904
1753234922738690300,13.696690185546874,4.994057655334473,-1.4462286233901978,1.0439332723617554
1753234922754723300,13.712723388671876,4.669887542724609,-1.3771650791168213,0.4595410227775574
1753234922770690800,13.72869091796875,2.512282371520996,-1.3590161800384521,-0.42552196979522705
1753234922786692900,13.74469287109375,-0.4096708297729492,-1.4261806011199951,-0.7613474130630493
1753234922802727400,13.7607275390625,-2.724750518798828,-1.395653247833252,-0.8909075856208801
1753234922818747600,13.77674755859375,-3.8144702911376953,-1.3565025329589844,-0.6715764403343201
1753234922834736000,13.792736083984375,-3.673356056213379,-1.5352296829223633,0.24912789463996887
1753234922850706200,13.8087060546875,-2.111423969268799,-1.4599552154541016,0.7441867589950562
1753234922866727200,13.82472705078125,-0.4689779281616211,-1.0667552947998047,0.501894474029541
1753234922882762800,13.8407626953125,0.3029489517211914,-0.7651190161705017,0.2560637593269348
1753234922898743600,13.85674365234375,-0.04831218719482422,-0.35773640871047974,0.06826204061508179
1753234922914743300,13.872743408203124,-1.2760391235351562,0.005800843238830566,-0.19701892137527466
1753234922930762500,13.888762451171875,-2.9581427574157715,0.19224333763122559,0.022745609283447266
1753234922946739000,13.904739013671875,-4.192496299743652,0.1602797508239746,0.39998579025268555
1753234922962774800,13.92077490234375,-4.8126301765441895,0.16125988960266113,0.3776649236679077
1753234922978750000,13.93675,-4.5863356590271,0.16700589656829834,0.11753040552139282
1753234922994780700,13.95278076171875,-3.7356162071228027,0.05120289325714111,-0.08364561200141907
1753234923010745900,13.968745849609375,-1.9969000816345215,0.04045736789703369,-0.650536298751831
1753234923026786800,13.984786865234375,-0.4920320510864258,0.19807517528533936,-0.6935994625091553
1753234923042820000,14.000820068359374,0.44176387786865234,0.3440279960632324,-0.30817389488220215
1753234923058836200,14.016836181640626,0.5787782669067383,0.29648149013519287,-0.4246900677680969
1753234923074872300,14.032872314453124,0.641657829284668,0.11459982395172119,-0.5418680906295776
1753234923090854700,14.048854736328124,1.505859375,0.07191860675811768,-0.4384130537509918
1753234923106832100,14.06483203125,2.8561792373657227,0.060660481452941895,0.10021686553955078
1753234923122846500,14.080846435546874,4.023760795593262,0.27630090713500977,0.45826998353004456
1753234923138822100,14.096822265625,4.653464317321777,0.40982675552368164,0.3479979634284973
1753234923154812000,14.11281201171875,4.522336006164551,0.29855573177337646,0.45480260252952576
1753234923170826200,14.128826171875,3.84090518951416,0.04913759231567383,0.35420945286750793
1753234923186842000,14.144842041015625,3.048168182373047,0.253692626953125,0.326233446598053
1753234923202877700,14.160877685546875,2.7029294967651367,-0.40468132495880127,0.6595221757888794
1753234923218855200,14.176855224609374,3.383620262145996,-1.0517293214797974,0.38654452562332153
1753234923234893600,14.1928935546875,3.040513038635254,-0.723642885684967,0.0749930739402771
1753234923250862300,14.2088623046875,1.6872920989990234,-0.46627652645111084,0.33772337436676025
1753234923266875400,14.22487548828125,0.2748069763183594,-0.8815634846687317,0.5842649936676025
1753234923282911000,14.240910888671875,-1.2996883392333984,-1.5645376443862915,0.6929738521575928
1753234923298928600,14.2569287109375,-2.5537467002868652,-1.8486568927764893,0.36553406715393066
1753234923314963500,14.27296337890625,-2.9926962852478027,-1.7790127992630005,0.7688089609146118
1753234923330932500,14.288932373046874,-2.167585849761963,-1.4722187519073486,1.3116931915283203
1753234923346955300,14.304955322265625,-0.956934928894043,-1.0057846307754517,1.4059956073760986
1753234923362989600,14.320989501953125,-0.2817869186401367,-0.5423363447189331,0.9604111909866333
1753234923378970000,14.33697021484375,0.059406280517578125,-0.061262309551239014,0.25171804428100586
1753234923394966800,14.352966796875,0.0008916854858398438,0.20910876989364624,-0.2848159074783325
1753234923410996000,14.368995849609375,-1.0749435424804688,0.16445410251617432,-0.27694982290267944
1753234923426967600,14.384967529296874,-2.408855438232422,0.3228965997695923,0.42644837498664856
1753234923443003600,14.401003662109375,-3.2761082649230957,0.6325446963310242,0.9805795550346375
1753234923458981600,14.416981689453126,-3.7900824546813965,0.8758891224861145,0.8618291616439819
1753234923475011600,14.433011474609375,-3.923624038696289,0.9303395748138428,0.4845221936702728
1753234923490978600,14.448978515625,-3.1731700897216797,0.8363818526268005,-0.03940683603286743
1753234923507041800,14.465041748046875,-1.829411506652832,0.6984429359436035,0.25944268703460693
1753234923523078400,14.481078369140626,-0.7737894058227539,0.551119863986969,1.163913607597351
1753234923539103500,14.497103515625,-0.4128122329711914,0.5355280637741089,1.3371872901916504
1753234923555099600,14.513099609375,-0.5023183822631836,0.7219895124435425,1.0220860242843628
1753234923571077000,14.5290771484375,-0.22681713104248047,0.8212878704071045,1.0760269165039062
1753234923587054000,14.54505419921875,-0.1513204574584961,0.3847477436065674,1.04331636428833
1753234923603106600,14.5611064453125,-0.2200641632080078,0.17562830448150635,0.5012219548225403
1753234923619095600,14.577095458984376,0.9295234680175781,0.243452787399292,0.4575580358505249
1753234923635118600,14.59311865234375,3.1260204315185547,0.15751469135284424,0.6301544308662415
1753234923651133200,14.60913330078125,5.234750747680664,0.20189929008483887,0.3477966785430908
1753234923667146800,14.625146728515626,6.491608619689941,0.1426246166229248,0.24653473496437073
1753234923683179000,14.641178955078125,6.651690483093262,-0.01283252239227295,0.4645443558692932
1753234923699192600,14.657192626953124,6.464591026306152,-0.3194957971572876,0.6538926362991333
1753234923715225900,14.673225830078126,5.956298828125,-0.7190927267074585,0.6953607797622681
1753234923731190800,14.689190673828126,4.922704696655273,-1.1967538595199585,0.5407803058624268
1753234923747213600,14.705213623046875,3.2238330841064453,-1.5375920534133911,0.018459022045135498
1753234923763248400,14.721248291015625,1.2463836669921875,-2.007690906524658,-0.26865828037261963
1753234923779266300,14.737266357421875,-0.589716911315918,-2.3326189517974854,-0.31355005502700806
1753234923795284200,14.7532841796875,-1.8499908447265625,-2.3416614532470703,-0.5154831409454346
1753234923811253000,14.7692529296875,-1.9455456733703613,-2.15427827835083,-0.2336447834968567
1753234923827278300,14.7852783203125,-1.7732434272766113,-2.013547420501709,-0.1105085015296936
1753234923843326200,14.801326171875,-0.9053277969360352,-1.5948784351348877,0.20921307802200317
1753234923859312000,14.81731201171875,0.08385467529296875,-1.0392440557479858,0.40720272064208984
1753234923875316000,14.83331591796875,0.11141109466552734,-0.6183933019638062,0.695190966129303
1753234923891342600,14.849342529296875,-0.7992258071899414,-0.3766322135925293,0.8452025651931763
1753234923907314400,14.865314453125,-2.195629119873047,-0.251162052154541,0.8243850469589233
1753234923923350000,14.88135009765625,-3.521017551422119,-0.1734524965286255,0.6911105513572693
1753234923939325700,14.89732568359375,-4.393416881561279,-0.020938992500305176,0.5414689183235168
1753234923955408600,14.91340869140625,-4.479601860046387,-0.07046329975128174,0.6833186149597168
1753234923971373300,14.929373291015626,-4.079196453094482,-0.19813299179077148,0.7337812185287476
1753234923987387400,14.945387451171875,-3.3882904052734375,-0.19756686687469482,0.6706302762031555
1753234924003422000,14.961421875,-2.3874764442443848,-0.0812227725982666,0.5261744260787964
1753234924019439400,14.977439453125,-1.7976737022399902,-0.09808611869812012,0.3632220923900604
1753234924035447300,14.993447265625,-1.8330144882202148,-0.03413796424865723,0.20848308503627777
1753234924051428900,15.009428955078125,-1.8845405578613281,0.15307366847991943,0.11549144983291626
1753234924067401700,15.025401611328125,-1.2028217315673828,0.3527179956436157,0.27061253786087036
1753234924083453700,15.04145361328125,0.23707199096679688,0.4741247892379761,0.3932958245277405
1753234924099442400,15.0574423828125,1.4879579544067383,0.2634892463684082,0.5986127853393555
1753234924115460900,15.0734609375,2.370870590209961,-0.11503076553344727,0.9535214900970459
1753234924131472400,15.089472412109375,2.7021255493164062,-0.2575998306274414,1.0184812545776367
1753234924147492600,15.10549267578125,2.9133825302124023,-0.1922464370727539,0.7687073349952698
1753234924163529000,15.121529052734376,3.0452280044555664,-0.3381458520889282,0.710477352142334
1753234924179503600,15.137503662109374,3.244359016418457,-0.5446056127548218,1.0103753805160522
1753234924195535600,15.15353564453125,3.544527053833008,-0.589421808719635,1.11349356174469
1753234924211502600,15.169502685546876,4.209630966186523,-0.6853832006454468,1.0210530757904053
1753234924227476700,15.185476806640626,4.905285835266113,-0.7357432842254639,0.9243198037147522
1753234924243515600,15.201515625,4.171230316162109,-0.48263639211654663,0.8955430388450623
1753234924259535000,15.21753515625,2.451676368713379,-0.5014716982841492,0.8853446245193481
1753234924275523800,15.23352392578125,0.6488552093505859,-0.9576408863067627,1.176091194152832
1753234924291490800,15.24949072265625,-0.8629932403564453,-1.285868763923645,1.7492576837539673
1753234924307514000,15.26551416015625,-1.7397117614746094,-1.533140778541565,1.8649988174438477
1753234924323550500,15.281550537109375,-1.8840322494506836,-1.4718501567840576,2.026156425476074
1753234924339532500,15.297532470703125,-1.3251981735229492,-1.0364654064178467,1.7311956882476807
1753234924355583000,15.3135830078125,-0.6395273208618164,-0.6213949918746948,0.7319778800010681
1753234924371604000,15.32960400390625,-0.021841049194335938,-0.14440393447875977,-0.024700939655303955
1753234924387576300,15.345576416015625,-0.034271240234375,0.23193639516830444,-0.2110195755958557
1753234924403628500,15.361628662109375,-0.567225456237793,0.2887023091316223,-0.09226757287979126
1753234924419615500,15.377615478515626,-1.6388216018676758,0.20824748277664185,0.13801133632659912
1753234924435648500,15.3936484375,-2.9203577041625977,0.3916659355163574,0.8466863632202148
1753234924451617800,15.40961767578125,-3.97585391998291,0.5279146432876587,1.0525903701782227
1753234924467635700,15.4256357421875,-4.609891414642334,0.556910514831543,0.7907052040100098
1753234924483646000,15.44164599609375,-3.920897960662842,0.6146649122238159,0.3508196473121643
1753234924499665200,15.4576650390625,-2.76007080078125,0.743511438369751,0.11726409196853638
1753234924515651600,15.473651611328124,-1.4805326461791992,0.7379946708679199,0.5706804394721985
1753234924531619000,15.489619140625,-0.43114185333251953,0.5471971035003662,0.9064080715179443
1753234924547595300,15.50559521484375,0.04712867736816406,0.4713360071182251,0.799199104309082
1753234924563647000,15.52164697265625,0.17571735382080078,0.5862714052200317,0.6512481570243835
1753234924579640300,15.537640380859376,0.4480857849121094,0.6301862001419067,0.5603543519973755
1753234924595648000,15.55364794921875,1.2654132843017578,0.4692089557647705,0.3689924478530884
1753234924611677400,15.569677490234374,2.178436279296875,0.3968205451965332,0.37287312746047974
1753234924627722000,15.585721923828125,3.00144100189209,0.5051767826080322,0.3570713996887207
1753234924643757300,15.60175732421875,3.4865283966064453,0.5083299875259399,0.174202561378479
1753234924659738000,15.617738037109374,3.725677490234375,0.5770750045776367,0.13262724876403809
1753234924675778300,15.6337783203125,3.6685094833374023,0.552504301071167,0.2229830026626587
1753234924691746300,15.649746337890624,4.037851333618164,0.09607100486755371,0.6418094635009766
1753234924707719700,15.6657197265625,4.918183326721191,-0.3921622037887573,1.2403919696807861
1753234924723756300,15.68175634765625,5.511478424072266,-0.7939233183860779,1.6127126216888428
1753234924739781600,15.69778173828125,4.578500747680664,-1.4851372241973877,1.4473190307617188
1753234924755774200,15.713774169921875,2.6538000106811523,-1.7761411666870117,1.0010231733322144
1753234924771743000,15.729742919921875,0.6736822128295898,-1.7936972379684448,0.5271854400634766
1753234924787766300,15.745766357421875,-1.022761344909668,-1.892754316329956,0.3519665002822876
1753234924803802000,15.761802001953125,-2.2111692428588867,-2.056823253631592,0.30411213636398315
1753234924819778000,15.777778076171876,-2.811349868774414,-1.9675371646881104,0.38023364543914795
1753234924835762400,15.793762451171874,-2.3508214950561523,-1.5647659301757812,0.8483690619468689
1753234924851776800,15.80977685546875,-1.5752439498901367,-1.3630977869033813,1.022672176361084
1753234924867753000,15.8257529296875,-0.913909912109375,-1.104334831237793,1.022829532623291
1753234924883808500,15.84180859375,-0.6017131805419922,-0.7356538772583008,1.030781865119934
1753234924899792600,15.857792724609375,-0.5901479721069336,-0.2604485750198364,0.97650545835495
1753234924915847200,15.87384716796875,-0.9142303466796875,0.25219643115997314,0.7747237682342529
1753234924931829500,15.88982958984375,-1.6468791961669922,0.3756287097930908,0.9436439275741577
1753234924947846000,15.905845947265625,-2.7322001457214355,0.2746245861053467,0.6709603071212769
1753234924963885000,15.921885009765624,-3.5110268592834473,0.39310312271118164,0.4527720808982849
1753234924979905500,15.937905517578125,-3.4881954193115234,0.25435197353363037,0.682734489440918
1753234924995894500,15.95389453125,-2.9943695068359375,0.3113476037979126,0.7479814291000366
1753234925011861500,15.969861572265625,-2.2072620391845703,0.3118762969970703,0.6328651309013367
1753234925027841000,15.985841064453124,-1.3106870651245117,0.2804896831512451,0.5456380844116211
1753234925043901000,16.00190087890625,-0.767298698425293,0.5542037487030029,0.6191915273666382
1753234925059884800,16.017884765625,-0.3744373321533203,0.8705211877822876,0.5280300378799438
1753234925075895300,16.033895263671877,0.35187244415283203,0.916226863861084,0.4898179769515991
1753234925091924700,16.0499248046875,1.048487663269043,0.5411224365234375,0.6879658102989197
1753234925107945700,16.06594580078125,1.3645057678222656,0.3877071142196655,0.7921782732009888
1753234925123981600,16.081981689453126,1.6701631546020508,0.14767122268676758,0.9749665856361389
1753234925139974100,16.09797412109375,2.1447935104370117,-0.3355933427810669,1.127366304397583
1753234925156017700,16.114017578125,2.6211862564086914,-0.5880143642425537,0.8557533621788025
1753234925171990800,16.12999072265625,2.6998233795166016,-0.8855686187744141,0.7136094570159912
1753234925187966200,16.14596630859375,2.688100814819336,-1.3282263278961182,0.7540282011032104
1753234925204002300,16.162002197265625,3.1548643112182617,-1.4939017295837402,0.49831172823905945
1753234925220023600,16.1780234375,3.6042861938476562,-1.5064293146133423,0.21144306659698486
1753234925236049000,16.194048828125,3.57930850982666,-1.1687381267547607,0.27799832820892334
1753234925252019500,16.21001953125,2.6864919662475586,-0.8222271800041199,0.4700533151626587
1753234925268046800,16.226046875,1.4536333084106445,-1.0342179536819458,0.8614957928657532
1753234925284086000,16.2420859375,0.04498577117919922,-1.4556903839111328,1.3821824789047241
1753234925300069400,16.2580693359375,-0.8524103164672852,-1.6797147989273071,1.9237616062164307
1753234925316068000,16.274068115234375,-1.0017576217651367,-1.5530887842178345,2.0741329193115234
1753234925332102000,16.290101806640624,-0.5339164733886719,-1.1655465364456177,1.8836076259613037
1753234925348078600,16.30607861328125,-0.012930870056152344,-0.8348908424377441,1.4832607507705688
1753234925364136200,16.32213623046875,0.3370389938354492,-0.4084870517253876,0.6846767663955688
1753234925380130600,16.338130615234373,0.18912982940673828,0.20358091592788696,-0.1829441785812378
1753234925395260200,16.35326025390625,-0.29555702209472656,0.40083980560302734,-0.5784332752227783
1753234925411239200,16.3692392578125,-0.8544521331787109,0.3566145896911621,-0.15301239490509033
1753234925427259100,16.385259033203123,-1.5780057907104492,0.3073234558105469,0.5261105298995972
1753234925443316000,16.40131591796875,-2.281189441680908,0.5446051955223083,1.113590955734253
1753234925459336400,16.41733642578125,-3.125977039337158,0.7950407862663269,0.8101696968078613
1753234925475323100,16.4333232421875,-3.914358139038086,0.8580729365348816,0.1324877142906189
1753234925491288600,16.44928857421875,-3.9282093048095703,0.9992126226425171,0.014147639274597168
1753234925507267000,16.46526708984375,-2.933173179626465,1.1356161832809448,0.26383721828460693
1753234925523305700,16.4813056640625,-1.4328889846801758,1.0788003206253052,0.6182012557983398
1753234925539291100,16.497291015625,0.12494373321533203,0.8316346406936646,0.9609033465385437
1753234925555283000,16.513282958984377,1.3973941802978516,0.6246812343597412,0.6936665177345276
1753234925571304000,16.529303955078124,1.7237586975097656,0.5255464315414429,0.27099156379699707
1753234925587322000,16.545322021484374,1.5497112274169922,0.20056724548339844,0.4931432902812958
1753234925603366100,16.5613662109375,1.562056541442871,0.18788421154022217,0.570030152797699
1753234925619406800,16.57740673828125,1.757354736328125,0.22319650650024414,0.4157857894897461
1753234925635444000,16.59344384765625,2.5569419860839844,0.09578144550323486,-0.267106294631958
1753234925651410400,16.609410400390626,2.631793975830078,0.06687164306640625,-0.06900614500045776
1753234925667382800,16.6253828125,2.3407907485961914,0.0343327522277832,0.23803859949111938
1753234925683420400,16.64142041015625,2.0395021438598633,-0.060503363609313965,0.3571760058403015
1753234925699441000,16.65744091796875,2.3534679412841797,-0.4964996576309204,0.5683076977729797
1753234925715448600,16.673448486328127,3.4131507873535156,-0.953065812587738,1.1114728450775146
1753234925731419000,16.6894189453125,4.397294044494629,-1.4231663942337036,1.3647295236587524
1753234925747443500,16.705443359375,4.490639686584473,-1.6977295875549316,1.1276897192001343
1753234925763480600,16.72148046875,3.506793975830078,-1.8027771711349487,0.8279392123222351
1753234925779460000,16.737460205078126,1.7429018020629883,-1.7641228437423706,0.5540043115615845
1753234925795450400,16.753450439453125,-0.3530426025390625,-1.7527351379394531,0.42875343561172485
1753234925811439400,16.769439453125,-1.9859991073608398,-1.7359107732772827,0.17474567890167236
1753234925827416600,16.78541650390625,-2.8767685890197754,-1.5399532318115234,0.3361203372478485
1753234925843453400,16.801453369140624,-3.1009182929992676,-1.1996426582336426,0.720410943031311
1753234925859430400,16.817430419921877,-2.8983235359191895,-0.9425674676895142,1.2264771461486816
1753234925875464200,16.833464111328126,-2.379000663757324,-0.76081383228302,1.4207279682159424
1753234925891433700,16.849433837890626,-1.6422538757324219,-0.6545126438140869,1.156015396118164
1753234925907456000,16.8654560546875,-1.065476417541504,-0.4536520838737488,0.5476115345954895
1753234925923510800,16.8815107421875,-0.9328403472900391,-0.13646471500396729,0.26731210947036743
1753234925939540700,16.897540771484376,-1.427262306213379,-0.04893684387207031,0.5047993659973145
1753234925955528200,16.913528076171875,-2.5947647094726562,0.07001113891601562,0.425498902797699
1753234925971497700,16.929497802734375,-3.825939178466797,0.14445936679840088,0.36156532168388367
1753234925987481000,16.945481201171877,-4.447821140289307,0.25375211238861084,0.17461615800857544
1753234926003522800,16.961522705078124,-3.8837108612060547,0.3276352882385254,-0.13698112964630127
1753234926019505200,16.977505126953126,-2.2595248222351074,0.43468189239501953,-0.2737216353416443
1753234926035496200,16.99349609375,-0.8637456893920898,0.5474963188171387,-0.23861610889434814
1753234926051520800,17.009520751953126,-0.06776618957519531,0.5944892168045044,0.0915796160697937
1753234926067544000,17.0255439453125,0.5928640365600586,0.7293679714202881,0.4020501375198364
1753234926083596000,17.041595947265623,1.2228355407714844,0.8201358318328857,0.03827899694442749
1753234926099584500,17.05758447265625,1.7448129653930664,0.840366005897522,0.08677884936332703
1753234926115659300,17.0736591796875,2.405405044555664,0.9007008075714111,0.0524183064699173
1753234926131628300,17.089628173828125,2.87691593170166,0.6573876142501831,0.35199058055877686
1753234926147602700,17.105602783203125,3.2643203735351562,0.3047754764556885,0.5143425464630127
1753234926163639300,17.121639404296875,3.363266944885254,-0.07683885097503662,0.21259930729866028
1753234926179658500,17.137658447265625,3.194368362426758,-0.5152163505554199,0.045296281576156616
1753234926195651600,17.153651611328126,3.510138511657715,-1.192433476448059,-0.08931881189346313
1753234926211621400,17.169621337890625,4.756569862365723,-1.4337488412857056,-0.4713784456253052
1753234926227645400,17.1856455078125,6.3618268966674805,-1.2651671171188354,-0.7250433564186096
1753234926243684900,17.201684814453124,6.660183906555176,-1.0658133029937744,0.03170269727706909
1753234926259667500,17.21766748046875,4.418570518493652,-0.9703612327575684,0.24835678935050964
1753234926275655400,17.233655517578125,1.5068044662475586,-1.4366282224655151,0.38893184065818787
1753234926291673300,17.24967333984375,-1.0828142166137695,-1.8381404876708984,1.1718552112579346
1753234926307650600,17.265650634765624,-2.9925875663757324,-1.7223321199417114,2.16245174407959
1753234926323689700,17.281689697265627,-3.704012393951416,-1.408002495765686,2.5590713024139404
1753234926339671300,17.29767138671875,-3.218264102935791,-1.224888563156128,2.0492665767669678
1753234926355709000,17.313708984375,-2.059211254119873,-0.9885073304176331,0.8215309381484985
1753234926371683000,17.32968310546875,-0.8719348907470703,-0.5736474394798279,-0.5064494013786316
1753234926387705900,17.345705810546875,0.021902084350585938,0.026131868362426758,-0.7287765145301819
1753234926403742700,17.36174267578125,-0.5330324172973633,-0.13529765605926514,-0.19261199235916138
1753234926419769300,17.377769287109373,-1.9948148727416992,-0.45513224601745605,-0.060055553913116455
1753234926435764500,17.393764404296874,-3.50437068939209,-0.35045337677001953,0.10360419750213623
1753234926451736800,17.40973681640625,-4.479799270629883,0.0636059045791626,0.27734723687171936
1753234926467717000,17.425717041015623,-4.931191921234131,0.4377589225769043,0.2607117295265198
1753234926483759400,17.44175927734375,-5.0586090087890625,0.5167174339294434,0.44077393412590027
1753234926499742200,17.4577421875,-4.507316589355469,0.6199009418487549,0.4752843379974365
1753234926515736000,17.473736083984374,-3.0423898696899414,0.5884888172149658,0.5920634865760803
1753234926531756000,17.489756103515624,-0.7725801467895508,0.6907676458358765,0.41374510526657104
1753234926547781000,17.505781005859376,1.1351947784423828,0.9134522676467896,0.28565043210983276
1753234926563820500,17.521820556640623,2.2785329818725586,0.7796492576599121,0.36768239736557007
1753234926579801300,17.53780126953125,2.3179330825805664,0.5234236717224121,-0.027864396572113037
1753234926595872000,17.5538720703125,1.6156911849975586,0.42261528968811035,-0.21640563011169434
1753234926611860500,17.569860595703126,1.1507854461669922,0.5318841934204102,-0.46862882375717163
1753234926627850200,17.585850341796874,1.1723203659057617,0.6057690382003784,-0.7525506615638733
1753234926643911700,17.60191162109375,1.5279655456542969,0.49516379833221436,-1.045756220817566
1753234926659952600,17.61795263671875,1.745640754699707,0.1888030767440796,-0.8449656963348389
1753234926675970300,17.63397021484375,2.098111152648926,-0.3197503089904785,-0.46156859397888184
1753234926691946000,17.649946044921876,3.384490966796875,-0.9485665559768677,-0.3346831202507019
1753234926707977700,17.665977783203125,5.1832170486450195,-1.450601577758789,0.35810545086860657
1753234926724020200,17.682020263671873,6.313902854919434,-1.592781662940979,0.3875766396522522
1753234926740006100,17.698006103515624,6.310971260070801,-1.6049585342407227,-0.3533328175544739
1753234926756001500,17.71400146484375,4.909600257873535,-1.7846527099609375,-0.8580946326255798
1753234926772026000,17.730026123046876,2.409343719482422,-1.9524445533752441,-1.0348957777023315
1753234926788009500,17.746009521484375,-0.13581275939941406,-2.003330707550049,-0.7722101211547852
1753234926804054300,17.76205419921875,-2.0314321517944336,-1.7668401002883911,-0.2771725058555603
1753234926820040700,17.778040771484374,-2.9097723960876465,-1.5883934497833252,0.5675286054611206
1753234926836082000,17.79408203125,-3.0150914192199707,-1.320814609527588,0.885238766670227
1753234926852055800,17.810055908203125,-2.2068347930908203,-0.9685587286949158,0.7344675660133362
1753234926868103000,17.82610302734375,-1.1461982727050781,-0.5126060247421265,0.8096555471420288
1753234926884146400,17.842146484375,-0.46503353118896484,-0.016206681728363037,0.7456128597259521
1753234926900177700,17.858177734375,-0.2582836151123047,0.2920336127281189,0.6901236772537231
1753234926916195600,17.874195556640625,-0.9214811325073242,0.5964773297309875,0.1884770393371582
1753234926932182000,17.89018212890625,-2.0513381958007812,0.7459210157394409,0.22764569520950317
1753234926948168700,17.906168701171875,-3.396273612976074,0.6351966857910156,0.7000418305397034
1753234926964214500,17.922214599609376,-4.423492431640625,0.6213442087173462,0.48865416646003723
1753234926980199400,17.938199462890626,-4.731739044189453,0.722640872001648,0.11532479524612427
1753234926996194000,17.954194091796875,-4.142155170440674,0.7638643383979797,-0.5069455504417419
1753234927012217000,17.970217041015626,-2.0158591270446777,0.7236247062683105,-1.0815337896347046
1753234927028241700,17.98624169921875,0.21330642700195312,0.8023106455802917,-1.0494134426116943
1753234927044285200,18.00228515625,1.0260391235351562,0.7506048679351807,-0.1428358554840088
1753234927060265200,18.01826513671875,0.6198530197143555,0.5933517217636108,0.28960204124450684
1753234927076314600,18.034314697265625,0.4312305450439453,0.4333620071411133,0.08676731586456299
1753234927092303000,18.05030322265625,0.8443622589111328,0.18016338348388672,0.2671563923358917
1753234927108310500,18.066310546875,1.7173833847045898,0.00869452953338623,0.6984933018684387
1753234927124352000,18.08235205078125,2.7489891052246094,0.06703925132751465,0.5579589605331421
1753234927140376600,18.09837646484375,3.875075340270996,0.11644351482391357,0.08977734297513962
1753234927156372700,18.114372802734376,4.134953498840332,-0.06505358219146729,0.09801696240901947
1753234927172342300,18.13034228515625,3.255765914916992,-0.10206758975982666,0.8025789260864258
1753234927188366300,18.146366455078127,2.571857452392578,0.12743782997131348,0.4896567165851593
1753234927204402200,18.162402099609373,2.57157039642334,-0.6349213719367981,0.08734951913356781
1753234927220385800,18.1783857421875,3.709949493408203,-1.1124029159545898,-0.760113000869751
1753234927236380400,18.19438037109375,5.031887054443359,-0.9427664279937744,-1.0266162157058716
1753234927252402000,18.21040185546875,4.234906196594238,-0.9590893983840942,-0.4160579442977905
1753234927268381200,18.226381103515624,2.356045722961426,-1.1485753059387207,-0.402235746383667
1753234927284420400,18.24242041015625,0.37259864807128906,-1.5242764949798584,-0.13427475094795227
1753234927300398300,18.2583984375,-1.391831398010254,-1.808485984802246,0.37911421060562134
1753234927316484000,18.274484130859374,-2.4870238304138184,-1.7761377096176147,0.754464328289032
1753234927332456400,18.29045654296875,-2.7686805725097656,-1.4658594131469727,0.9520913362503052
1753234927348505300,18.30650537109375,-2.315704822540283,-1.0474047660827637,0.5862832069396973
1753234927364545300,18.322545166015626,-1.4032230377197266,-0.6924190521240234,0.07088974118232727
1753234927380584700,18.338584716796873,-0.8523397445678711,-0.3664477467536926,-0.28293776512145996
1753234927396599800,18.354599853515627,-0.9720096588134766,-0.11893230676651001,-0.6719592213630676
1753234927412589600,18.370589599609374,-1.5891695022583008,-0.012406527996063232,-0.6039713621139526
1753234927428575200,18.3865751953125,-2.7803120613098145,-0.03519117832183838,-0.06739383935928345
1753234927444615000,18.402614990234376,-3.858344554901123,0.09364622831344604,0.4482535123825073
1753234927460594400,18.418594482421874,-4.699976921081543,0.3709605932235718,0.51334148645401
1753234927476585200,18.434585205078125,-5.18812894821167,0.5619394779205322,0.17224158346652985
1753234927492604200,18.450604248046876,-4.9312591552734375,0.7031241655349731,-0.09699690341949463
1753234927508627000,18.466626953125,-4.06583309173584,0.7771414518356323,-0.039787352085113525
1753234927524666600,18.48266650390625,-2.4834847450256348,0.8226118087768555,-0.03381747007369995
1753234927540673500,18.498673583984374,-0.5546636581420898,0.7811884880065918,-0.1755731701850891
1753234927556711700,18.514711669921876,1.2625465393066406,0.854554295539856,0.14520162343978882
1753234927572685800,18.530685791015625,2.5812196731567383,0.668645977973938,0.49439623951911926
1753234927588664000,18.5466640625,2.876161575317383,0.28798365592956543,-0.14526057243347168
1753234927604663000,18.5626630859375,2.622401237487793,0.03765130043029785,-0.6856963038444519
1753234927620685800,18.578685791015626,2.7676620483398438,0.097176194190979,-1.3267128467559814
1753234927636686600,18.5946865234375,3.096843719482422,0.15600359439849854,-1.544576644897461
1753234927652659500,18.610659423828125,3.2760963439941406,0.14320719242095947,-0.806556224822998
1753234927668688000,18.62668798828125,3.1425514221191406,0.056568026542663574,-0.350382924079895
1753234927684731000,18.64273095703125,2.889406204223633,-0.35034918785095215,-0.23171192407608032
1753234927700711000,18.6587109375,3.3046131134033203,-1.1459975242614746,0.023095011711120605
1753234927716702000,18.674701904296874,4.186530113220215,-1.6499409675598145,0.36631256341934204
1753234927732722400,18.690722412109373,4.635104179382324,-1.6417163610458374,0.5420421957969666
1753234927748707800,18.706707763671876,4.725634574890137,-1.5439400672912598,0.008943140506744385
1753234927764739000,18.722739013671877,3.8880882263183594,-1.7254860401153564,-0.27860039472579956
1753234927780758000,18.738758056640624,1.660813331604004,-1.8290321826934814,-0.37991762161254883
1753234927796796400,18.75479638671875,-0.41578006744384766,-1.7975693941116333,-0.6352745294570923
1753234927812769800,18.770769775390626,-1.8632755279541016,-1.5677719116210938,-0.8108939528465271
1753234927828829400,18.786829345703126,-2.467719554901123,-1.2804557085037231,-0.2959785461425781
1753234927844875800,18.802875732421874,-2.3167972564697266,-0.9651473760604858,0.4983903169631958
1753234927860903400,18.8189033203125,-1.9397897720336914,-0.7803791165351868,0.7947578430175781
1753234927877013000,18.835012939453126,-1.7874083518981934,-0.6359108686447144,0.707882285118103
1753234927893002500,18.85100244140625,-2.1364927291870117,-0.38821953535079956,0.2615993916988373
1753234927908987100,18.866987060546876,-2.493880271911621,-0.3116793632507324,0.05932331085205078
1753234927925027800,18.88302783203125,-2.712474822998047,-0.23184102773666382,0.35456106066703796
1753234927941010200,18.89901025390625,-2.92523193359375,0.09904205799102783,0.5688257217407227
1753234927957002200,18.915002197265625,-3.280078887939453,0.18012118339538574,0.5448715686798096
1753234927973021200,18.931021240234376,-3.6961960792541504,0.015206217765808105,0.25978222489356995
1753234927989045500,18.94704541015625,-3.6230692863464355,0.055320024490356445,-0.08898597955703735
1753234928005084400,18.96308447265625,-2.754584312438965,0.3169574737548828,-0.2750568389892578
1753234928021063700,18.979063720703124,-1.4582452774047852,0.4493131637573242,-0.4905428886413574
1753234928037103400,18.995103271484375,-0.571690559387207,0.45727479457855225,-0.426575630903244
1753234928053082000,19.01108203125,0.09344768524169922,0.7154833078384399,-0.6712756156921387
1753234928069102800,19.027102783203127,0.9658699035644531,0.7802842855453491,-0.5828607678413391
1753234928085155300,19.0431552734375,1.847792625427246,0.45574891567230225,-0.2767871618270874
1753234928101215500,19.059215576171876,2.5031795501708984,0.30985844135284424,0.018608957529067993
1753234928117214000,19.0752138671875,3.0366296768188477,0.3445824384689331,0.18384826183319092
1753234928133185300,19.091185302734374,3.183222770690918,0.3462179899215698,-0.21050402522087097
1753234928149214000,19.1072138671875,2.9419593811035156,0.14576172828674316,-0.24856621026992798
1753234928165252000,19.123252197265625,2.913649559020996,-0.09909284114837646,-0.15949204564094543
1753234928181232000,19.139232177734375,3.140911102294922,-0.5580611228942871,-0.06222712993621826
1753234928197221400,19.155221435546874,3.6264944076538086,-0.9477605819702148,-0.1604245901107788
1753234928213237200,19.1712373046875,4.272871017456055,-0.9816576838493347,-0.3000950217247009
1753234928229213700,19.187213623046876,4.271244049072266,-0.6868860721588135,-0.5129737257957458
1753234928245253600,19.203253662109375,3.2688894271850586,-0.6880047917366028,-0.5563240647315979
1753234928261233400,19.2192333984375,1.7791433334350586,-0.9924277067184448,-0.21174004673957825
1753234928277268200,19.235268310546875,0.19838809967041016,-1.2819252014160156,0.3240586519241333
1753234928293237200,19.2512373046875,-1.4813604354858398,-1.2804580926895142,0.7386066317558289
1753234928309256200,19.267256103515624,-2.8610262870788574,-1.1835060119628906,0.8992578983306885
1753234928325293300,19.283293212890626,-3.2950439453125,-1.0526115894317627,0.7057965993881226
1753234928341313800,19.299313720703125,-2.9280481338500977,-0.8452505469322205,0.44844067096710205
1753234928357350400,19.315350341796876,-2.065971851348877,-0.5928482413291931,0.02812996506690979
1753234928373336600,19.331336669921875,-1.0980558395385742,-0.4995056390762329,-0.3360651135444641
1753234928389322800,19.34732275390625,-0.5331239700317383,-0.33621227741241455,-0.23997843265533447
1753234928405371600,19.36337158203125,-0.82720947265625,-0.1470056176185608,0.3304137885570526
1753234928421364500,19.379364501953123,-2.102924346923828,-0.08926665782928467,0.4079842269420624
1753234928437355300,19.395355224609375,-3.503054141998291,0.03432631492614746,0.1370289921760559
1753234928453376800,19.411376708984374,-4.44550085067749,0.2736365795135498,0.12329858541488647
1753234928469401300,19.4274013671875,-4.8562846183776855,0.42332208156585693,0.06987839937210083
1753234928485411600,19.44341162109375,-4.254393100738525,0.6456453800201416,-0.07065415382385254
1753234928501393700,19.4593935546875,-2.6034202575683594,0.7629778385162354,-0.158949613571167
1753234928517429200,19.47542919921875,-0.6935567855834961,0.47017669677734375,0.28349781036376953
1753234928533397200,19.491397216796877,0.9551753997802734,0.43467748165130615,0.3835814893245697
1753234928549420300,19.507420166015624,2.0335159301757812,0.8001171350479126,0.5222328901290894
1753234928565457200,19.52345703125,1.8347244262695312,0.980188250541687,0.5085479021072388
1753234928581505000,19.539505126953124,1.6263208389282227,1.0802669525146484,0.24008628726005554
1753234928597511400,19.555511474609375,2.1389541625976562,1.0064356327056885,-0.6308761835098267
1753234928613479700,19.571479736328126,3.2059717178344727,0.9271513223648071,-1.1607218980789185
1753234928629503500,19.58750341796875,3.975170135498047,0.9180715084075928,-1.1134512424468994
1753234928645545700,19.603545654296877,4.278371810913086,0.9145950078964233,-0.9480891823768616
1753234928661546200,19.619546142578123,3.809617042541504,0.6278281211853027,-0.7781646251678467
1753234928677539300,19.635539306640624,4.010441780090332,-0.14915895462036133,-0.6008013486862183
1753234928693556700,19.651556640625,4.761979103088379,-1.0134565830230713,0.11969751119613647
1753234928709529900,19.66752978515625,5.460877418518066,-1.4537758827209473,0.5086205005645752
1753234928725590000,19.683590087890625,5.234043121337891,-1.771311640739441,0.00551798939704895
1753234928741572600,19.699572509765623,3.5508804321289062,-1.9302058219909668,-0.5899916291236877
1753234928757609500,19.715609375,1.013472557067871,-1.9745217561721802,-0.9258910417556763
1753234928773579800,19.731579833984377,-1.3211517333984375,-2.050910711288452,-0.8973303437232971
1753234928789597400,19.747597412109375,-2.837369441986084,-2.081038475036621,-0.8405740261077881
1753234928805636600,19.76363671875,-3.243170738220215,-1.904974341392517,-0.5577739477157593
1753234928821656600,19.779656494140625,-2.3384170532226562,-1.6293089389801025,0.0006998777389526367
1753234928837696500,19.795696533203124,-1.2197284698486328,-1.317741870880127,0.2596016526222229
1753234928853671700,19.811671630859376,-0.8118648529052734,-0.9870048761367798,0.5819881558418274
1753234928869653200,19.8276533203125,-1.0781478881835938,-0.6439492702484131,0.5445330739021301
1753234928885716000,19.843716064453126,-1.7909173965454102,-0.22168457508087158,-0.01611083745956421
1753234928901774800,19.85977490234375,-2.463052749633789,0.023886442184448242,-0.15391284227371216
1753234928917765600,19.875765625,-3.2221627235412598,-0.009000182151794434,0.3228512406349182
1753234928933842700,19.8918427734375,-4.095295429229736,-0.022394180297851562,0.27637964487075806
1753234928949868500,19.90786865234375,-4.895425796508789,0.036917805671691895,0.039104074239730835
