time,seconds_elapsed,z,y,x
1753234909092245000,0.050244873046875,0.033597588539123535,-0.18387043476104736,-0.15332718193531036
1753234909108278000,0.066278076171875,0.033597588539123535,-0.18387043476104736,-0.15332718193531036
1753234909124301000,0.082301025390625,0.033597588539123535,-0.18387043476104736,-0.15332718193531036
1753234909140312000,0.09831201171875,0.033597588539123535,-0.18387043476104736,-0.15332718193531036
1753234909156282000,0.1142822265625,0.033597588539123535,-0.18387043476104736,-0.15332718193531036
1753234909172274200,0.130274169921875,0.033597588539123535,-0.18387043476104736,-0.15332718193531036
1753234909188338000,0.146337890625,-0.006108652334660292,0.051312681287527084,-0.16065755486488342
1753234909204328000,0.162327880859375,-0.010995574295520782,0.036651913076639175,-0.11911872029304504
1753234909220344300,0.17834423828125,-0.025045474991202354,-0.0806342139840126,-0.06169738993048668
1753234909236362000,0.194362060546875,-0.029932396486401558,-0.18875735998153687,-0.05375614017248154
1753234909252396800,0.210396728515625,0.007941247895359993,-0.2730567753314972,-0.04764748737215996
1753234909268453400,0.226453369140625,0.00733038317412138,-0.18325957655906677,-0.01038470957428217
1753234909284442400,0.2424423828125,-0.01038470957428217,0.028099801391363144,0.0354301854968071
1753234909300500000,0.2585,-0.030543262138962746,0.1411098688840866,0.03481931984424591
1753234909316472800,0.274472900390625,-0.04092797264456749,0.19120082259178162,0.024434609338641167
1753234909332508400,0.29050830078125,-0.036651913076639175,0.17043140530586243,0.022602014243602753
1753234909348566000,0.30656591796875,-0.018325956538319588,0.09896016865968704,0.00733038317412138
1753234909364596700,0.3225966796875,0.009773843921720982,-0.01466076634824276,-0.059864792972803116
1753234909380610300,0.3386103515625,0.04092797264456749,-0.07330382615327835,-0.11056660860776901
1753234909396580400,0.354580322265625,0.045204028487205505,-0.06902777403593063,-0.10690141469240189
1753234909412614100,0.3706142578125,0.005497787147760391,-0.015271631069481373,-0.054367005825042725
1753234909428675000,0.386675048828125,-0.02932153269648552,0.029932396486401558,0.0354301854968071
1753234909444662500,0.40266259765625,-0.021380282938480377,0.03237585723400116,0.08796459436416626
1753234909460676000,0.418676025390625,0.014049900695681572,0.006108652334660292,0.04214970022439957
1753234909476695300,0.4346953125,0.02076941914856434,-0.009773843921720982,-0.06963863968849182
1753234909492689400,0.450689453125,0.01160643994808197,-0.021380282938480377,-0.14233160018920898
1753234909508747800,0.466747802734375,0.005497787147760391,0.015271631069481373,-0.09224065393209457
1753234909524739000,0.482739013671875,0.004886921960860491,-0.0006108652451075613,-0.001832595793530345
1753234909540800000,0.498800048828125,0.012828170321881771,-0.02871066704392433,0.056810468435287476
1753234909556774100,0.514774169921875,0.001832595793530345,-0.012828170321881771,0.04214970022439957
1753234909572809700,0.530809814453125,-0.02687807008624077,0.001832595793530345,-0.025656340643763542
1753234909588868600,0.54686865234375,-0.033597588539123535,0.04337143152952194,-0.06169738993048668
1753234909604899800,0.56289990234375,-0.036041051149368286,0.03298672288656235,-0.00366519158706069
1753234909620913000,0.578912841796875,-0.03237585723400116,-0.02382374368607998,0.06169738993048668
1753234909636884700,0.594884765625,-0.00733038317412138,-0.07819075137376785,0.07941248267889023
1753234909652875800,0.610875732421875,0.0012217304902151227,-0.07696902006864548,0.06108652427792549
1753234909668934400,0.626934326171875,0.006719517521560192,0.01038470957428217,0.012828170321881771
1753234909684923400,0.64292333984375,-0.005497787147760391,0.05192354694008827,-0.08674286305904388
1753234909700937700,0.658937744140625,-0.005497787147760391,0.07024950534105301,-0.1215621829032898
1753234909716956000,0.674955810546875,-0.00855211354792118,0.06230825558304787,-0.05864306539297104
1753234909732989200,0.6909892578125,-0.015882495790719986,0.015882495790719986,0.03848451003432274
1753234909749046800,0.707046875,-0.00855211354792118,0.02015855349600315,0.10690141469240189
1753234909765039400,0.723039306640625,-0.006719517521560192,0.014049900695681572,0.07330382615327835
1753234909781098500,0.739098388671875,-0.0024434609804302454,0.03481931984424591,-0.010995574295520782
1753234909797069000,0.755069091796875,0.009162978269159794,0.01710422709584236,-0.036041051149368286
1753234909813057000,0.77105712890625,0.006719517521560192,-0.001832595793530345,-0.015882495790719986
1753234909829115400,0.787115478515625,-0.003054326167330146,-0.013439035043120384,0.01466076634824276
1753234909845147400,0.8031474609375,-0.00366519158706069,-0.029932396486401558,0.00733038317412138
1753234909861206000,0.8192060546875,0.004886921960860491,-0.05375614017248154,-0.04948008432984352
1753234909877178000,0.83517822265625,0.018325956538319588,-0.05009094998240471,-0.10690141469240189
1753234909893214700,0.851214599609375,0.0024434609804302454,0.01160643994808197,-0.12461651116609573
1753234909909277400,0.86727734375,-0.001832595793530345,0.04581489413976669,-0.06169738993048668
1753234909925270800,0.883270751953125,0.004886921960860491,0.03420845419168472,0.021991148591041565
1753234909941287200,0.899287109375,0.00855211354792118,-0.004886921960860491,0.03787364438176155
1753234909957310700,0.915310791015625,0.012217304669320583,-0.01160643994808197,0.009162978269159794
1753234909973304000,0.931303955078125,0.015882495790719986,-0.04092797264456749,0.0006108652451075613
1753234909989366800,0.94736669921875,0.005497787147760391,-0.03176499158143997,0.036041051149368286
1753234910005360000,0.963360107421875,-0.015882495790719986,0.0354301854968071,0.09468411654233932
1753234910021427000,0.979427001953125,-0.02321287989616394,0.05742133408784866,0.11362093687057495
1753234910037396200,0.995396240234375,-0.006108652334660292,0.07330382615327835,0.06841690838336945
1753234910053427700,1.011427734375,0.009162978269159794,0.0024434609804302454,0.003054326167330146
1753234910069484000,1.027484130859375,0.00733038317412138,-0.036041051149368286,-0.025045474991202354
1753234910085513200,1.04351318359375,-0.007941247895359993,-0.0403171069920063,-0.006108652334660292
1753234910101528600,1.059528564453125,-0.018325956538319588,0.033597588539123535,0.003054326167330146
1753234910117499600,1.075499755859375,-0.02015855349600315,0.06230825558304787,-0.02076941914856434
1753234910133489400,1.091489501953125,-0.00366519158706069,0.039095375686883926,-0.05864306539297104
1753234910149552000,1.10755224609375,0.016493361443281174,-0.0006108652451075613,-0.08002334833145142
1753234910165539800,1.123539794921875,0.015271631069481373,-0.03848451003432274,-0.06352998316287994
1753234910181550600,1.139550537109375,0.00427605677396059,-0.02015855349600315,-0.01710422709584236
1753234910197561900,1.155561767578125,-0.02076941914856434,0.028099801391363144,0.007941247895359993
1753234910213591000,1.171591064453125,-0.04581489413976669,0.05497787147760391,0.010995574295520782
1753234910229648000,1.18764794921875,-0.02321287989616394,0.05192354694008827,-0.003054326167330146
1753234910245634300,1.20363427734375,0.00366519158706069,0.007941247895359993,-0.02076941914856434
1753234910261692200,1.219692138671875,0.02015855349600315,-0.001832595793530345,-0.02015855349600315
1753234910277663200,1.235663330078125,0.03176499158143997,-0.021380282938480377,-0.009773843921720982
1753234910293652500,1.251652587890625,0.02932153269648552,0.00427605677396059,0.0006108652451075613
1753234910309711400,1.26771142578125,0.00366519158706069,0.02871066704392433,0
1753234910325747500,1.28374755859375,-0.02321287989616394,0.054367005825042725,0.003054326167330146
1753234910341763600,1.299763671875,-0.02932153269648552,0.04703662544488907,-0.0024434609804302454
1753234910357735400,1.3157353515625,-0.021380282938480377,0.009162978269159794,-0.019547687843441963
1753234910373773600,1.331773681640625,-0.005497787147760391,-0.012828170321881771,-0.022602014243602753
1753234910389838600,1.347838623046875,-0.0012217304902151227,-0.02687807008624077,-0.006719517521560192
1753234910405825800,1.36382568359375,-0.0012217304902151227,-0.027488935738801956,-0.0024434609804302454
1753234910421841400,1.37984130859375,-0.00427605677396059,-0.012217304669320583,-0.00855211354792118
1753234910437863000,1.39586279296875,-0.012828170321881771,0.019547687843441963,-0.004886921960860491
1753234910453855700,1.411855712890625,-0.016493361443281174,0.015882495790719986,-0.0024434609804302454
1753234910469913300,1.427913330078125,-0.015271631069481373,0.00855211354792118,-0.00855211354792118
1753234910485903400,1.4439033203125,-0.003054326167330146,0.006719517521560192,-0.02076941914856434
1753234910501964300,1.45996435546875,0.012828170321881771,-0.0024434609804302454,-0.029932396486401558
1753234910517934300,1.475934326171875,0.00427605677396059,0.003054326167330146,-0.013439035043120384
1753234910533970400,1.491970458984375,-0.02015855349600315,0.021380282938480377,0.010995574295520782
1753234910550029000,1.508029052734375,-0.02076941914856434,0.02687807008624077,0.018936822190880775
1753234910566062300,1.524062255859375,-0.006108652334660292,0.01038470957428217,0.01038470957428217
1753234910582078700,1.54007861328125,0.01710422709584236,-0.012828170321881771,0.012217304669320583
1753234910598052000,1.556052001953125,0.03481931984424591,-0.014049900695681572,0.013439035043120384
1753234910614043600,1.572043701171875,0.01466076634824276,-0.009162978269159794,0.01466076634824276
1753234910630106600,1.588106689453125,-0.005497787147760391,0.024434609338641167,0.009773843921720982
1753234910646098400,1.604098388671875,-0.015271631069481373,0.03176499158143997,0.02382374368607998
1753234910662114800,1.62011474609375,-0.007941247895359993,0.006108652334660292,0.054367005825042725
1753234910678137000,1.63613720703125,0.013439035043120384,-0.019547687843441963,0.07147123664617538
1753234910694174500,1.652174560546875,0.018325956538319588,-0.009773843921720982,0.06475171446800232
1753234910710238500,1.668238525390625,0.014049900695681572,0.02321287989616394,0.048258353024721146
1753234910726263800,1.684263916015625,0.0024434609804302454,0.05192354694008827,0.02382374368607998
1753234910742323000,1.700322998046875,-0.015882495790719986,0.06902777403593063,0.010995574295520782
1753234910758294300,1.716294189453125,-0.025045474991202354,0.04092797264456749,-0.0024434609804302454
1753234910774285300,1.732285400390625,-0.00855211354792118,0.003054326167330146,-0.016493361443281174
1753234910790344400,1.748344482421875,0.015271631069481373,-0.03481931984424591,-0.036651913076639175
1753234910806378500,1.76437841796875,0.021991148591041565,-0.03848451003432274,-0.036651913076639175
1753234910822426600,1.780426513671875,0.00855211354792118,0.010995574295520782,-0.012828170321881771
1753234910838403300,1.7964033203125,-0.010995574295520782,0.04398229718208313,0.025045474991202354
1753234910854444000,1.812444091796875,-0.015882495790719986,0.04398229718208313,0.05497787147760391
1753234910870508800,1.8285087890625,-0.00733038317412138,0.01771509274840355,0.030543262138962746
1753234910886503000,1.8445029296875,0.015882495790719986,-0.02076941914856434,-0.018936822190880775
1753234910902517500,1.860517578125,0.029932396486401558,-0.02687807008624077,-0.028099801391363144
1753234910918584600,1.87658447265625,0.01710422709584236,0.0024434609804302454,-0.004886921960860491
1753234910934581200,1.892581298828125,0.003054326167330146,0.06414084881544113,0.042760565876960754
1753234910950643700,1.908643798828125,-0.007941247895359993,0.07208210229873657,0.06780604273080826
1753234910966632700,1.9246328125,-0.012828170321881771,0.06291911751031876,0.05864306539297104
1753234910982692000,1.940692138671875,0.001832595793530345,0.02871066704392433,0.027488935738801956
1753234910998712000,1.956712158203125,0.009773843921720982,-0.006719517521560192,-0.039706241339445114
1753234911014745600,1.97274560546875,0.015882495790719986,-0.022602014243602753,-0.07635815441608429
1753234911030805000,1.988804931640625,0.0012217304902151227,-0.02382374368607998,-0.06841690838336945
1753234911046838500,2.004838623046875,-0.0024434609804302454,-0.02015855349600315,-0.02382374368607998
1753234911062855400,2.02085546875,-0.00427605677396059,-0.006108652334660292,0.0403171069920063
1753234911078830800,2.036830810546875,-0.006719517521560192,0.006108652334660292,0.04764748737215996
1753234911094826800,2.05282666015625,-0.005497787147760391,0.00855211354792118,0.00427605677396059
1753234911110893300,2.068893310546875,0.0024434609804302454,0.00855211354792118,-0.048258353024721146
1753234911126884600,2.084884521484375,0.00855211354792118,0.01038470957428217,-0.06414084881544113
1753234911142900500,2.100900390625,0.004886921960860491,0.013439035043120384,-0.018936822190880775
1753234911158921500,2.11692138671875,0.005497787147760391,-0.013439035043120384,0.03787364438176155
1753234911174958600,2.13295849609375,0.0024434609804302454,-0.0354301854968071,0.04581489413976669
1753234911191014400,2.149014404296875,0,-0.01038470957428217,0.003054326167330146
1753234911207047000,2.165046875,-0.016493361443281174,0.015882495790719986,-0.04459316283464432
1753234911223109000,2.181109130859375,-0.02015855349600315,0.03481931984424591,-0.03237585723400116
1753234911239082000,2.19708203125,-0.01771509274840355,0.009162978269159794,0.004886921960860491
1753234911255074600,2.213074462890625,-0.005497787147760391,-0.01466076634824276,0.04764748737215996
1753234911271132000,2.2291318359375,-0.003054326167330146,-0.02015855349600315,0.05253441259264946
1753234911287162400,2.245162353515625,-0.005497787147760391,-0.015882495790719986,-0.0006108652451075613
1753234911303203800,2.261203857421875,-0.0006108652451075613,0.027488935738801956,-0.0507018156349659
1753234911319173600,2.277173583984375,-0.0024434609804302454,0.04092797264456749,-0.04703662544488907
1753234911335209000,2.293208984375,-0.006108652334660292,0.019547687843441963,0.009162978269159794
1753234911351271700,2.309271728515625,-0.006108652334660292,-0.02015855349600315,0.08185594528913498
1753234911367262000,2.325261962890625,-0.00427605677396059,-0.02321287989616394,0.10445795953273773
1753234911383275300,2.341275146484375,-0.009162978269159794,-0.00366519158706069,0.06780604273080826
1753234911399297800,2.3572978515625,-0.014049900695681572,0.009162978269159794,-0.02382374368607998
1753234911415291100,2.373291015625,0.0012217304902151227,0.03481931984424591,-0.07269296050071716
1753234911431356700,2.389356689453125,-0.005497787147760391,0.0555887371301651,-0.07757988572120667
1753234911447350800,2.405350830078125,0.01160643994808197,0.025045474991202354,-0.02687807008624077
1753234911463415600,2.42141552734375,0.018936822190880775,0.0006108652451075613,0.03298672288656235
1753234911479389400,2.437389404296875,0.013439035043120384,0.009162978269159794,0.0354301854968071
1753234911495433500,2.45343359375,0.00733038317412138,0.02687807008624077,0.009773843921720982
1753234911511497000,2.4694970703125,0.0024434609804302454,0.004886921960860491,-0.015271631069481373
1753234911527535400,2.485535400390625,0.0012217304902151227,0.0012217304902151227,-0.00855211354792118
1753234911543552800,2.501552734375,0.00366519158706069,0.01160643994808197,0.03726277872920036
1753234911559528200,2.517528076171875,0.01160643994808197,0.00855211354792118,0.07147123664617538
1753234911575521300,2.533521240234375,0.02321287989616394,-0.009162978269159794,0.0507018156349659
1753234911591536600,2.54953662109375,0.024434609338641167,-0.019547687843441963,0.005497787147760391
1753234911607525600,2.565525634765625,0.012217304669320583,0.016493361443281174,-0.02871066704392433
1753234911623541800,2.581541748046875,0.001832595793530345,0.04459316283464432,-0.02687807008624077
1753234911639561000,2.59756103515625,-0.001832595793530345,0.0403171069920063,-0.021380282938480377
1753234911655600000,2.61360009765625,0.003054326167330146,0.021991148591041565,-0.01710422709584236
1753234911671615000,2.629614990234375,-0.0024434609804302454,0.009162978269159794,-0.014049900695681572
1753234911687627500,2.64562744140625,0.0012217304902151227,-0.01710422709584236,-0.012217304669320583
1753234911703690200,2.661690185546875,0.003054326167330146,-0.02076941914856434,-0.009773843921720982
1753234911719663400,2.677663330078125,-0.004886921960860491,-0.003054326167330146,0.005497787147760391
1753234911735659800,2.69365966796875,-0.0012217304902151227,-0.0012217304902151227,0.007941247895359993
1753234911751721700,2.7097216796875,0.012217304669320583,0.007941247895359993,-0.001832595793530345
1753234911767758300,2.72575830078125,0.015271631069481373,0.01466076634824276,-0.006108652334660292
1753234911783806200,2.74180615234375,0.009773843921720982,0.014049900695681572,0.0006108652451075613
1753234911799780900,2.75778076171875,0.007941247895359993,0.01160643994808197,0.004886921960860491
1753234911815818800,2.77381884765625,0.00366519158706069,0.00855211354792118,0.015882495790719986
1753234911831882000,2.789882080078125,0.00366519158706069,-0.006108652334660292,0.025045474991202354
1753234911847875600,2.80587548828125,0.010995574295520782,-0.019547687843441963,0.010995574295520782
1753234911863894300,2.821894287109375,0.021991148591041565,-0.00427605677396059,-0.03726277872920036
1753234911879916500,2.83791650390625,0.02687807008624077,0.003054326167330146,-0.060475658625364304
1753234911895914800,2.853914794921875,0.022602014243602753,-0.015271631069481373,-0.05314527451992035
1753234911911979000,2.86997900390625,0.016493361443281174,-0.025045474991202354,-0.02687807008624077
1753234911927977500,2.8859775390625,0.0006108652451075613,-0.012217304669320583,0.006719517521560192
1753234911944046600,2.902046630859375,-0.004886921960860491,-0.012828170321881771,0.009162978269159794
1753234911960022800,2.918022705078125,0.01038470957428217,0.01038470957428217,-0.0024434609804302454
1753234911976068900,2.93406884765625,0.006108652334660292,0.021991148591041565,-0.018325956538319588
1753234911992130800,2.950130859375,0.015271631069481373,0.007941247895359993,-0.04337143152952194
1753234912008165600,2.96616552734375,0.018936822190880775,-0.007941247895359993,-0.0354301854968071
1753234912024182000,2.98218212890625,0.01771509274840355,-0.013439035043120384,-0.009773843921720982
1753234912040154600,2.998154541015625,0.003054326167330146,-0.02871066704392433,0.012828170321881771
1753234912056151300,3.0141513671875,0.005497787147760391,-0.003054326167330146,0.006719517521560192
1753234912072215800,3.0302158203125,0.00427605677396059,0.042760565876960754,-0.01038470957428217
1753234912088210400,3.04621044921875,-0.005497787147760391,0.045204028487205505,-0.0354301854968071
1753234912104225300,3.062225341796875,-0.0006108652451075613,0.012217304669320583,-0.048258353024721146
1753234912120244000,3.078243896484375,0.00366519158706069,-0.02015855349600315,-0.04214970022439957
1753234912136282600,3.09428271484375,0.006719517521560192,-0.04948008432984352,-0.02382374368607998
1753234912152343000,3.110343017578125,0.009162978269159794,-0.02321287989616394,-0.00366519158706069
1753234912168361500,3.126361572265625,-0.0012217304902151227,0.021380282938480377,0.004886921960860491
1753234912192407600,3.150407470703125,-0.009773843921720982,0.024434609338641167,-0.00733038317412138
1753234912208400000,3.16639990234375,-0.00366519158706069,-0.015271631069481373,-0.021991148591041565
1753234912224423200,3.182423095703125,-0.007941247895359993,-0.02871066704392433,-0.03420845419168472
1753234912240484000,3.198484130859375,-0.016493361443281174,-0.01710422709584236,-0.04337143152952194
1753234912256507000,3.2145068359375,-0.00855211354792118,0.01160643994808197,-0.03726277872920036
1753234912272518400,3.230518310546875,0.007941247895359993,0.010995574295520782,-0.02871066704392433
1753234912288507400,3.24650732421875,0.005497787147760391,0.006108652334660292,-0.004886921960860491
1753234912304567600,3.262567626953125,-0.00855211354792118,0,0.018325956538319588
1753234912320588500,3.278588623046875,-0.01710422709584236,0.02871066704392433,0.019547687843441963
1753234912336587300,3.294587158203125,-0.02382374368607998,0.03176499158143997,-0.006108652334660292
1753234912352646000,3.31064599609375,-0.021991148591041565,0.0024434609804302454,-0.06658431142568588
1753234912368689000,3.32668896484375,-0.007941247895359993,-0.02015855349600315,-0.09712757170200348
1753234912384703000,3.342702880859375,-0.00427605677396059,-0.033597588539123535,-0.07208210229873657
1753234912400721000,3.358720947265625,-0.00366519158706069,-0.03237585723400116,-0.01771509274840355
1753234912416719000,3.374718994140625,-0.00733038317412138,0.003054326167330146,0.015271631069481373
1753234912432778200,3.3907783203125,-0.007941247895359993,0.022602014243602753,0
1753234912448768800,3.406768798828125,-0.005497787147760391,0.018325956538319588,-0.01771509274840355
1753234912464838400,3.42283837890625,-0.0024434609804302454,-0.005497787147760391,-0.02871066704392433
1753234912480871000,3.438870849609375,0.009162978269159794,-0.029932396486401558,-0.027488935738801956
1753234912496863000,3.454863037109375,0.013439035043120384,-0.027488935738801956,-0.007941247895359993
1753234912512873700,3.470873779296875,0.005497787147760391,0.0024434609804302454,-0.00366519158706069
1753234912528864300,3.4868642578125,-0.0006108652451075613,0.027488935738801956,-0.015882495790719986
1753234912544927000,3.502927001953125,-0.003054326167330146,0.016493361443281174,-0.0354301854968071
1753234912560944600,3.518944580078125,0.0006108652451075613,0.00366519158706069,-0.05192354694008827
1753234912576941300,3.53494140625,-0.0024434609804302454,-0.028099801391363144,-0.06414084881544113
1753234912592952600,3.55095263671875,0.00733038317412138,-0.025656340643763542,-0.05742133408784866
1753234912608992500,3.566992431640625,0.0024434609804302454,0.015882495790719986,-0.02015855349600315
1753234912625048800,3.583048828125,-0.006719517521560192,0.04886921867728233,0.013439035043120384
1753234912641105000,3.59910498046875,-0.00733038317412138,0.0403171069920063,0.014049900695681572
1753234912657097000,3.615096923828125,0.0024434609804302454,0.006108652334660292,-0.010995574295520782
1753234912673153000,3.631153076171875,0.00427605677396059,-0.027488935738801956,-0.05009094998240471
1753234912689140500,3.647140380859375,0.01160643994808197,-0.02932153269648552,-0.0659734457731247
1753234912705168100,3.663168212890625,0.013439035043120384,0.0006108652451075613,-0.06414084881544113
1753234912721228500,3.679228515625,0.015271631069481373,0.018325956538319588,-0.04703662544488907
1753234912737245400,3.695245361328125,0.018936822190880775,0.022602014243602753,-0.028099801391363144
1753234912753257700,3.7112578125,0.02015855349600315,0.013439035043120384,-0.012828170321881771
1753234912769251300,3.727251220703125,0.01466076634824276,-0.00855211354792118,-0.006108652334660292
1753234912785313500,3.7433134765625,0.015271631069481373,-0.03298672288656235,-0.00366519158706069
1753234912801332700,3.759332763671875,0.01160643994808197,-0.02321287989616394,-0.010995574295520782
1753234912817327400,3.775327392578125,-0.004886921960860491,0.010995574295520782,-0.012828170321881771
1753234912833340700,3.791340576171875,-0.0012217304902151227,0.030543262138962746,-0.0403171069920063
1753234912849376000,3.8073759765625,-0.00427605677396059,0.02382374368607998,-0.08429940044879913
1753234912865386000,3.823385986328125,-0.005497787147760391,0.02076941914856434,-0.09896016865968704
1753234912881408000,3.839407958984375,0.003054326167330146,-0.005497787147760391,-0.08002334833145142
1753234912897401900,3.85540185546875,0.010995574295520782,-0.003054326167330146,-0.039706241339445114
1753234912913458000,3.8714580078125,0.00733038317412138,0.014049900695681572,-0.009162978269159794
1753234912929450000,3.887449951171875,-0.0024434609804302454,0.025656340643763542,0.01771509274840355
1753234912945532400,3.903532470703125,-0.01160643994808197,0.007941247895359993,0.015882495790719986
1753234912961591800,3.919591796875,-0.00855211354792118,-0.021380282938480377,-0.02687807008624077
1753234912977583900,3.935583984375,-0.00733038317412138,-0.031154127791523933,-0.06414084881544113
1753234912993593000,3.951593017578125,-0.00366519158706069,-0.015271631069481373,-0.06475171446800232
1753234913009582000,3.96758203125,-0.0006108652451075613,0.003054326167330146,-0.031154127791523933
1753234913025597000,3.983596923828125,-0.01160643994808197,0.006108652334660292,-0.004886921960860491
1753234913041614300,3.9996142578125,-0.019547687843441963,0.024434609338641167,-0.013439035043120384
1753234913057606400,4.0156064453125,-0.03726277872920036,0.025656340643763542,-0.04459316283464432
1753234913073618700,4.03161865234375,-0.05619960278272629,0.02382374368607998,-0.0757472887635231
1753234913089614300,4.0476142578125,-0.06658431142568588,0.031154127791523933,-0.06841690838336945
1753234913105672000,4.063671875,-0.08002334833145142,0.016493361443281174,-0.04214970022439957
1753234913121710800,4.0797109375,-0.08918632566928864,0.012217304669320583,-0.03420845419168472
1753234913137706500,4.09570654296875,-0.07941248267889023,-0.01160643994808197,-0.048258353024721146
1753234913153764400,4.111764404296875,-0.08246681094169617,-0.039706241339445114,-0.08368854224681854
1753234913169754600,4.127754638671875,-0.08674286305904388,-0.054367005825042725,-0.10384709388017654
1753234913185789700,4.143789794921875,-0.10201449692249298,-0.045204028487205505,-0.08491026610136032
1753234913201848000,4.15984814453125,-0.1270599663257599,-0.013439035043120384,-0.051312681287527084
1753234913217888300,4.17588818359375,-0.14294247329235077,0.042760565876960754,-0.018325956538319588
1753234913233901000,4.191901123046875,-0.16065755486488342,0.12217304855585098,-0.012828170321881771
1753234913249890300,4.207890380859375,-0.1667662113904953,0.1258382350206375,-0.031154127791523933
1753234913265948400,4.223948486328125,-0.15760323405265808,0.033597588539123535,-0.04398229718208313
1753234913281962500,4.23996240234375,-0.15332718193531036,-0.006108652334660292,-0.025045474991202354
1753234913297956000,4.2559560546875,-0.18631389737129211,-0.013439035043120384,-0.001832595793530345
1753234913314013000,4.272012939453125,-0.21868975460529327,0.004886921960860491,0
1753234913330048800,4.288048828125,-0.21868975460529327,0.012828170321881771,-0.04214970022439957
1753234913346057200,4.30405712890625,-0.19792033731937408,0.0024434609804302454,-0.13377949595451355
1753234913362070000,4.320070068359375,-0.16249015927314758,-0.01466076634824276,-0.2577851414680481
1753234913378058200,4.336058349609375,-0.14538592100143433,0.021380282938480377,-0.32009339332580566
1753234913394112500,4.352112548828125,-0.1368338167667389,0.10506882518529892,-0.31581732630729675
1753234913410101500,4.3681015625,-0.12278391420841217,0.1362229436635971,-0.26145032048225403
1753234913426190800,4.38419091796875,-0.08735372871160507,0.08552113175392151,-0.16798794269561768
1753234913442248700,4.400248779296875,-0.07819075137376785,0.0012217304902151227,-0.09162978827953339
1753234913458240800,4.41624072265625,-0.10567969083786011,-0.05009094998240471,-0.03298672288656235
1753234913474252800,4.432252685546875,-0.11911872029304504,-0.009773843921720982,-0.019547687843441963
1753234913490246400,4.448246337890625,-0.10812314599752426,0.021991148591041565,-0.04459316283464432
1753234913506264300,4.464264404296875,-0.0806342139840126,0.04948008432984352,-0.08124507963657379
1753234913522281700,4.48028173828125,-0.0659734457731247,0.05497787147760391,-0.10690141469240189
1753234913538275800,4.49627587890625,-0.05803219974040985,0.05253441259264946,-0.11728613078594208
1753234913554288400,4.512288330078125,-0.042760565876960754,0.03787364438176155,-0.10690141469240189
1753234913570328800,4.528328857421875,-0.030543262138962746,0.00366519158706069,-0.09162978827953339
1753234913586387700,4.5443876953125,0.006719517521560192,0.07330382615327835,-0.07757988572120667
1753234913602426400,4.56042626953125,0.036041051149368286,0.013439035043120384,-0.013439035043120384
1753234913618419200,4.576419189453125,0.03237585723400116,-0.07269296050071716,0.027488935738801956
1753234913634523600,4.592523681640625,0.05619960278272629,-0.18020524084568024,0.06719517707824707
1753234913650515500,4.608515380859375,0.0910189226269722,-0.3084869384765625,0.09285151958465576
1753234913666541000,4.624541015625,0.16249015927314758,-0.33475416898727417,0.12400564551353455
1753234913682600700,4.6406005859375,0.2376265823841095,-0.37201693654060364,0.18936823308467865
1753234913698632000,4.6566318359375,0.2968805134296417,-0.18570303916931152,0.27061331272125244
1753234913714623700,4.672623779296875,0.3292563557624817,0.10751228034496307,0.36651915311813354
1753234913730602500,4.6886025390625,0.3494149148464203,0.2724458873271942,0.44226643443107605
1753234913746641400,4.704641357421875,0.3341432809829712,0.3494149148464203,0.4349360466003418
1753234913762658800,4.720658935546875,0.2883284091949463,0.34697145223617554,0.3292563557624817
1753234913778652000,4.73665185546875,0.22113321721553802,0.17592918872833252,0.17348572611808777
1753234913794647600,4.7526474609375,0.2168571650981903,0.009162978269159794,0.07757988572120667
1753234913810645200,4.768645263671875,0.2431243658065796,-0.09040805697441101,0.01771509274840355
1753234913826637300,4.78463720703125,0.28099802136421204,-0.021380282938480377,0.012217304669320583
1753234913842657500,4.800657470703125,0.3341432809829712,0.036041051149368286,0.08246681094169617
1753234913858636500,4.816636474609375,0.41111230850219727,0.09834930300712585,0.27061331272125244
1753234913874694700,4.832694580078125,0.44654250144958496,0.13072516024112701,0.40683624148368835
1753234913890671400,4.84867138671875,0.46853363513946533,0.11911872029304504,0.42271876335144043
1753234913906754000,4.864754150390625,0.4386012554168701,0.13377949595451355,0.35246923565864563
1753234913922816000,4.88081591796875,0.37262779474258423,0.02932153269648552,0.1973094791173935
1753234913938803200,4.89680322265625,0.34697145223617554,-0.12889257073402405,-0.006719517521560192
1753234913954811100,4.91281103515625,0.41172316670417786,-0.04398229718208313,-0.3127630054950714
1753234913970804200,4.92880419921875,0.4147774875164032,-0.048258353024721146,-0.4434881806373596
1753234913986820600,4.944820556640625,0.35674530267715454,-0.05925392732024193,-0.36102136969566345
1753234914002841300,4.96084130859375,0.25045475363731384,0.015271631069481373,-0.09407325088977814
1753234914018835500,4.97683544921875,0.12400564551353455,0.003054326167330146,0.14905111491680145
1753234914034850000,4.99285009765625,0.028099801391363144,-0.007941247895359993,0.28588494658470154
1753234914050872000,5.0088720703125,0.021380282938480377,-0.02687807008624077,0.23579397797584534
1753234914066909700,5.02490966796875,0.01771509274840355,-0.05192354694008827,0.06169738993048668
1753234914082934300,5.040934326171875,-0.01038470957428217,0.031154127791523933,-0.039095375686883926
1753234914098917600,5.056917724609375,-0.03176499158143997,0.11362093687057495,0.04948008432984352
1753234914114960000,5.0729599609375,-0.036041051149368286,0.09896016865968704,0.252287358045578
1753234914130939000,5.08893896484375,0.01710422709584236,0.09529497474431992,0.4398229718208313
1753234914146982100,5.104982177734375,0.08735372871160507,0.042760565876960754,0.5198463201522827
1753234914163038700,5.121038818359375,0.12828169763088226,-0.08307767659425735,0.45814892649650574
1753234914179057200,5.13705712890625,0.15577064454555511,-0.28588494658470154,0.29993483424186707
1753234914195064300,5.153064208984375,0.10690141469240189,-0.48380526900291443,0.16310101747512817
1753234914211055400,5.169055419921875,0.059864792972803116,-0.4495968222618103,0.16310101747512817
1753234914227095000,5.185094970703125,0.00366519158706069,-0.20525072515010834,0.34636059403419495
1753234914243073800,5.20107373046875,-0.15332718193531036,0.08491026610136032,0.6731734871864319
1753234914259051500,5.217051513671875,-0.3188716471195221,0.04398229718208313,0.9236282706260681
1753234914275043000,5.23304296875,-0.43615779280662537,-0.18081611394882202,0.9896016716957092
1753234914291067100,5.249067138671875,-0.4453207552433014,-0.4349360466003418,0.7904596328735352
1753234914307076600,5.26507666015625,-0.44226643443107605,-0.4508185386657715,0.5222898125648499
1753234914323094500,5.281094482421875,-0.5186246037483215,-0.36163222789764404,0.18570303916931152
1753234914339085800,5.2970859375,-0.618195652961731,-0.19058994948863983,-0.07513642311096191
1753234914355140600,5.313140625,-0.7061602473258972,-0.04581489413976669,-0.31459560990333557
1753234914371131400,5.32913134765625,-0.6963863968849182,0.08552113175392151,-0.4612032473087311
1753234914387232000,5.34523193359375,-0.6499606370925903,0.16737708449363708,-0.48380526900291443
1753234914403296800,5.361296875,-0.6230825781822205,0.12828169763088226,-0.3689626157283783
1753234914419286800,5.377286865234375,-0.5791002511978149,0.13561208546161652,-0.23396138846874237
1753234914435297500,5.393297607421875,-0.47280970215797424,0.192422553896904,-0.12461651116609573
1753234914451278800,5.40927880859375,-0.39645153284072876,0.21624629199504852,-0.11789698898792267
1753234914467275800,5.42527587890625,-0.30970868468284607,0.28588494658470154,-0.23579397797584534
1753234914483292000,5.4412919921875,-0.182648703455925,0.3396410644054413,-0.48747047781944275
1753234914499272200,5.457272216796875,-0.10873401165008545,0.2321287989616394,-0.8130616545677185
1753234914515261700,5.47326171875,-0.07208210229873657,0.0354301854968071,-1.004873275756836
1753234914531298600,5.489298583984375,-0.029932396486401558,-0.19425514340400696,-1.0506882667541504
1753234914547340800,5.5053408203125,-0.013439035043120384,-0.26083946228027344,-0.9346238374710083
1753234914563358700,5.521358642578125,-0.018936822190880775,-0.14355333149433136,-0.7483099102973938
1753234914579349500,5.537349609375,-0.03787364438176155,0.08368854224681854,-0.4948008358478546
1753234914595399700,5.553399658203125,-0.0708603709936142,0.1875356286764145,-0.27550023794174194
1753234914611384800,5.569384765625,-0.10384709388017654,0.2174680233001709,-0.12889257073402405
1753234914627375900,5.5853759765625,-0.0910189226269722,0.22907446324825287,-0.08979719132184982
1753234914643431200,5.60143115234375,-0.06658431142568588,0.21135938167572021,-0.04703662544488907
1753234914659428400,5.617428466796875,-0.09040805697441101,0.1569923609495163,0.10690141469240189
1753234914675441000,5.63344091796875,-0.08307767659425735,0.02015855349600315,0.31642818450927734
1753234914691430700,5.6494306640625,-0.009162978269159794,-0.14233160018920898,0.384845107793808
1753234914707490000,5.665489990234375,0.07147123664617538,-0.17531833052635193,0.35185837745666504
1753234914723508500,5.681508544921875,0.13500121235847473,0.022602014243602753,0.3139847218990326
1753234914739529500,5.697529541015625,0.152105450630188,0.2474004179239273,0.3689626157283783
1753234914755541500,5.71354150390625,0.17043140530586243,0.3543018400669098,0.4758640229701996
1753234914771563500,5.7295634765625,0.20586158335208893,0.3732386529445648,0.5027421116828918
1753234914787554000,5.745553955078125,0.2669481039047241,0.20036379992961884,0.3683517575263977
1753234914803576600,5.76157666015625,0.36224308609962463,0.00855211354792118,0.1722639948129654
1753234914819555800,5.777555908203125,0.4502076804637909,-0.08429940044879913,0.0757472887635231
1753234914835594000,5.793593994140625,0.5009095072746277,0.009162978269159794,0.16004669666290283
1753234914851568000,5.809568115234375,0.5216789245605469,0.13316862285137177,0.2834414839744568
1753234914867602000,5.825601806640625,0.5125159621238708,0.06780604273080826,0.3225368559360504
1753234914883661300,5.841661376953125,0.4056145250797272,0.025045474991202354,0.21135938167572021
1753234914899640000,5.85764013671875,0.24190263450145721,0.16249015927314758,-0.00733038317412138
1753234914915642000,5.87364208984375,0.15393804013729095,0.3433062732219696,-0.0757472887635231
1753234914931626500,5.88962646484375,0.10567969083786011,0.3854559659957886,0.01771509274840355
1753234914947631900,5.9056318359375,0.11850785464048386,0.2993239760398865,0.08307767659425735
1753234914963647000,5.92164697265625,0.1765400618314743,0.09285151958465576,0.001832595793530345
1753234914979627300,5.937627197265625,0.23518311977386475,-0.1264491081237793,-0.23579397797584534
1753234914995616500,5.953616455078125,0.2889392673969269,-0.34758231043815613,-0.5400048494338989
1753234915011637200,5.96963720703125,0.2981022298336029,-0.28099802136421204,-0.6927211880683899
1753234915027690800,5.985690673828125,0.1966986060142517,-0.019547687843441963,-0.5650503635406494
1753234915043709200,6.001709228515625,0.04092797264456749,0.15577064454555511,-0.2577851414680481
1753234915059701200,6.017701171875,0.012828170321881771,0.18631389737129211,-0.033597588539123535
1753234915075735800,6.03373583984375,0.10384709388017654,0.05497787147760391,0.12828169763088226
1753234915091708400,6.04970849609375,0.12767083942890167,-0.10201449692249298,0.16065755486488342
1753234915107695900,6.06569580078125,0.15515977144241333,-0.1411098688840866,0.13316862285137177
1753234915123755300,6.08175537109375,0.1716531366109848,-0.17470745742321014,0.13011430203914642
1753234915139736000,6.097736083984375,0.11728613078594208,-0.1569923609495163,0.15760323405265808
1753234915155727000,6.11372705078125,0.056810468435287476,-0.05619960278272629,0.15515977144241333
1753234915171699000,6.129698974609375,0.051312681287527084,-0.09651670604944229,0.10751228034496307
1753234915187736300,6.145736328125,0.04214970022439957,-0.19120082259178162,0.06108652427792549
1753234915203754000,6.16175390625,-0.004886921960860491,-0.24434609711170197,0.09529497474431992
1753234915219740400,6.177740478515625,-0.11545353382825851,-0.3897320330142975,0.1667662113904953
1753234915235765200,6.19376513671875,-0.20952677726745605,-0.5143485069274902,0.17348572611808777
1753234915251805700,6.2098056640625,-0.30482175946235657,-0.48685958981513977,0.11911872029304504
1753234915267797800,6.2257978515625,-0.3891211748123169,-0.2718350291252136,0.05619960278272629
1753234915283817700,6.241817626953125,-0.3995058834552765,-0.024434609338641167,0.04092797264456749
1753234915299794700,6.257794677734375,-0.3219259977340698,0.09957103431224823,0.07635815441608429
1753234915315828000,6.273827880859375,-0.2675589919090271,0.14782938361167908,0.10018189996480942
1753234915331804000,6.289803955078125,-0.2877175211906433,0.31581732630729675,0.04153883829712868
1753234915347839500,6.305839599609375,-0.39767327904701233,0.5626068711280823,-0.06658431142568588
1753234915363898400,6.3218984375,-0.5473352670669556,0.7275404930114746,-0.21563543379306793
1753234915379880000,6.3378798828125,-0.6096435189247131,0.6224716901779175,-0.3219259977340698
1753234915395892000,6.35389208984375,-0.5558874011039734,0.19486601650714874,-0.3689626157283783
1753234915411880400,6.36988037109375,-0.40683624148368835,-0.15943582355976105,-0.37140607833862305
1753234915427898600,6.385898681640625,-0.23518311977386475,-0.35124751925468445,-0.3628539443016052
1753234915443917800,6.401917724609375,-0.11056660860776901,-0.28588494658470154,-0.36713001132011414
1753234915459909400,6.417909423828125,-0.04581489413976669,-0.07269296050071716,-0.375071257352829
1753234915475917800,6.433917724609375,-0.010995574295520782,0.17837265133857727,-0.375071257352829
1753234915491956000,6.4499560546875,-0.033597588539123535,0.26083946228027344,-0.3530801236629486
1753234915508014800,6.466014892578125,-0.036651913076639175,0.1459967941045761,-0.2791654169559479
1753234915524039000,6.482038818359375,-0.00855211354792118,-0.00855211354792118,-0.17592918872833252
1753234915540037400,6.498037353515625,-0.0012217304902151227,-0.08246681094169617,-0.02871066704392433
1753234915556076300,6.514076171875,-0.018936822190880775,0.004886921960860491,0.08735372871160507
1753234915572050000,6.5300498046875,-0.018325956538319588,0.1875356286764145,0.17959438264369965
1753234915588042200,6.546042236328125,-0.02382374368607998,0.34208452701568604,0.24373523890972137
1753234915604102000,6.562101806640625,-0.03176499158143997,0.29626965522766113,0.23579397797584534
1753234915620128300,6.578128173828125,-0.025656340643763542,0.1508837193250656,0.15821409225463867
1753234915636121000,6.59412109375,-0.031154127791523933,0.06108652427792549,0.08796459436416626
1753234915652098600,6.6100986328125,-0.012217304669320583,-0.13744467496871948,0.07330382615327835
1753234915668138500,6.626138427734375,0.01466076634824276,-0.2742784917354584,0.13439035415649414
1753234915684156400,6.642156494140625,0.08246681094169617,-0.3292563557624817,0.23579397797584534
1753234915700139000,6.658138916015625,0.09468411654233932,-0.20830504596233368,0.28649580478668213
1753234915716140800,6.674140869140625,0.10812314599752426,0.04764748737215996,0.3090978264808655
1753234915732181800,6.690181640625,0.09896016865968704,0.24068090319633484,0.30115658044815063
1753234915748171500,6.706171630859375,0.09162978827953339,0.22113321721553802,0.3023782968521118
1753234915764159200,6.7221591796875,0.13011430203914642,0.05253441259264946,0.34513887763023376
1753234915780136400,6.738136474609375,0.2064724564552307,-0.059864792972803116,0.3500257730484009
1753234915796172000,6.754172119140625,0.342695415019989,0.014049900695681572,0.28466320037841797
1753234915812148700,6.770148681640625,0.4801400899887085,0.16493362188339233,0.1966986060142517
1753234915828182500,6.7861826171875,0.5998696684837341,0.25595253705978394,0.06169738993048668
1753234915844237600,6.802237548828125,0.6059783101081848,0.20586158335208893,-0.024434609338641167
1753234915860217000,6.818217041015625,0.47708576917648315,0.19364428520202637,-0.031154127791523933
1753234915876204300,6.834204345703125,0.2889392673969269,0.33108896017074585,0.08002334833145142
1753234915892178000,6.850177978515625,0.18509216606616974,0.41233405470848083,0.23518311977386475
1753234915908170000,6.866169921875,0.16798794269561768,0.38728857040405273,0.3536909818649292
1753234915924180500,6.882180419921875,0.19364428520202637,0.26083946228027344,0.3121521472930908
1753234915940160500,6.898160400390625,0.24434609711170197,0.025656340643763542,0.06780604273080826
1753234915956147700,6.914147705078125,0.26633724570274353,-0.242513507604599,-0.26511552929878235
1753234915972171800,6.930171875,0.25595253705978394,-0.46547931432724,-0.5894849896430969
1753234915988221000,6.946220947265625,0.19853121042251587,-0.4294382631778717,-0.656680166721344
1753234916004264000,6.962263916015625,0.08857546001672745,-0.3225368559360504,-0.5265658497810364
1753234916020255500,6.97825537109375,-0.04642575979232788,-0.13072516024112701,-0.2583959996700287
1753234916036305000,6.994304931640625,-0.11545353382825851,0.05864306539297104,-0.045204028487205505
1753234916052282400,7.010282470703125,-0.11545353382825851,0.1814269721508026,0.13988813757896423
1753234916068274400,7.0262744140625,-0.07819075137376785,0.1459967941045761,0.25961771607398987
1753234916084335400,7.04233544921875,-0.02015855349600315,0.006719517521560192,0.34758231043815613
1753234916100313600,7.058313720703125,0.02932153269648552,-0.09896016865968704,0.3952298164367676
1753234916116303400,7.074303466796875,0.06902777403593063,-0.1362229436635971,0.4153883755207062
1753234916132276700,7.09027685546875,0.06291911751031876,-0.10995574295520782,0.37568211555480957
1753234916148315000,7.10631494140625,0.03481931984424591,-0.07880161702632904,0.294437050819397
1753234916164331300,7.122331298828125,-0.02382374368607998,-0.10018189996480942,0.14233160018920898
1753234916180309000,7.13830908203125,-0.04886921867728233,-0.21074850857257843,0.03787364438176155
1753234916196296400,7.15429638671875,-0.05253441259264946,-0.3885102868080139,0.05009094998240471
1753234916212314400,7.170314453125,-0.06719517707824707,-0.44165557622909546,0.18448130786418915
1753234916228299800,7.1862998046875,-0.13072516024112701,-0.4648684561252594,0.28649580478668213
1753234916244326700,7.20232666015625,-0.18081611394882202,-0.4495968222618103,0.21441370248794556
1753234916260302000,7.218302001953125,-0.22663100063800812,-0.3396410644054413,0.08857546001672745
1753234916276332000,7.23433203125,-0.2638937830924988,-0.23884831368923187,0.021991148591041565
1753234916292301300,7.25030126953125,-0.2626720666885376,-0.20830504596233368,0.03726277872920036
1753234916308330500,7.26633056640625,-0.3170390725135803,-0.2070833146572113,-0.0354301854968071
1753234916324383700,7.2823837890625,-0.4434881806373596,-0.05803219974040985,-0.29077184200286865
1753234916340371500,7.298371337890625,-0.6212499737739563,0.21441370248794556,-0.7458664774894714
1753234916356354800,7.314354736328125,-0.7128797173500061,0.4043927788734436,-1.0684033632278442
1753234916372326100,7.330326171875,-0.6737843751907349,0.39156460762023926,-1.0286970138549805
1753234916388318700,7.346318603515625,-0.5112941861152649,0.14294247329235077,-0.6664539575576782
1753234916404331800,7.362331787109375,-0.2968805134296417,-0.09834930300712585,-0.19120082259178162
1753234916420307200,7.37830712890625,-0.08491026610136032,-0.1722639948129654,0.18570303916931152
1753234916436296400,7.39429638671875,0.02015855349600315,-0.11423180252313614,0.19608774781227112
1753234916452321000,7.410321044921875,0.05925392732024193,0.07452555745840073,-0.1667662113904953
1753234916468357400,7.426357421875,0.05497787147760391,0.30054569244384766,-0.6114761233329773
1753234916484343300,7.44234326171875,-0.04886921867728233,0.5821545720100403,-0.9914342761039734
1753234916500318500,7.458318359375,-0.08796459436416626,0.6536257863044739,-0.9926560521125793
1753234916516399000,7.474399169921875,-0.03481931984424591,0.4489859640598297,-0.6298020482063293
1753234916532374800,7.490374755859375,0.007941247895359993,0.18997909128665924,-0.18936823308467865
1753234916548377300,7.50637744140625,0.00427605677396059,-0.0006108652451075613,0.19120082259178162
1753234916564436700,7.522436767578125,-0.009773843921720982,-0.02932153269648552,0.41599923372268677
1753234916580414500,7.53841455078125,-0.04642575979232788,0.045204028487205505,0.40072759985923767
1753234916596403500,7.554403564453125,-0.07696902006864548,0.13988813757896423,0.2816088795661926
1753234916612375600,7.57037548828125,-0.07635815441608429,0.10323622822761536,0.16310101747512817
1753234916628411100,7.5864111328125,-0.029932396486401558,-0.036041051149368286,0.04581489413976669
1753234916644420400,7.60242041015625,0.02015855349600315,-0.2168571650981903,-0.031154127791523933
1753234916660398300,7.6183984375,0.030543262138962746,-0.4080579876899719,-0.031154127791523933
1753234916676385300,7.63438525390625,0.04398229718208313,-0.28099802136421204,0.11301007121801376
1753234916692402400,7.65040234375,0.04337143152952194,-0.08674286305904388,0.34147366881370544
1753234916708387000,7.666386962890625,0.08674286305904388,0.00366519158706069,0.578489363193512
1753234916724361000,7.68236083984375,0.16859880089759827,-0.07635815441608429,0.6249151229858398
1753234916740337000,7.6983369140625,0.3066543638706207,-0.1514945775270462,0.485027015209198
1753234916756369000,7.714368896484375,0.4086688458919525,-0.16249015927314758,0.27977627515792847
1753234916772335600,7.730335693359375,0.50335294008255,-0.042760565876960754,0.07269296050071716
1753234916788366000,7.746365966796875,0.5577199459075928,0.10201449692249298,-0.014049900695681572
1753234916804418800,7.762418701171875,0.5479460954666138,0.14416420459747314,-0.09040805697441101
1753234916820393500,7.7783935546875,0.45204028487205505,0.05925392732024193,-0.24068090319633484
1753234916836380700,7.794380615234375,0.3023782968521118,0.11178833991289139,-0.35124751925468445
1753234916852352500,7.8103525390625,0.14416420459747314,0.39095374941825867,-0.2370157092809677
1753234916868343000,7.826343017578125,0.0708603709936142,0.5210680365562439,0.08124507963657379
1753234916884356600,7.842356689453125,0.06536258012056351,0.4795292317867279,0.4190535545349121
1753234916900332800,7.858332763671875,0.09651670604944229,0.34025195240974426,0.5015203952789307
1753234916916320800,7.87432080078125,0.14355333149433136,0.0757472887635231,0.30115658044815063
1753234916932334300,7.890334228515625,0.17043140530586243,-0.08307767659425735,-0.0806342139840126
1753234916948363000,7.906363037109375,0.16920967400074005,0.0403171069920063,-0.5027421116828918
1753234916964373800,7.922373779296875,0.09773843735456467,0.2828305959701538,-0.797789990901947
1753234916980347100,7.93834716796875,0.045204028487205505,0.3805690407752991,-0.7519751191139221
1753234916996394200,7.954394287109375,0.018325956538319588,0.3799581825733185,-0.4080579876899719
1753234917012378000,7.970378173828125,0.02382374368607998,0.15454891324043274,-0.04948008432984352
1753234917028365800,7.98636572265625,0.07147123664617538,-0.2021963894367218,0.25534167885780334
1753234917044421000,8.002421142578125,0.10262536257505417,-0.3023782968521118,0.39156460762023926
1753234917060398300,8.0183984375,0.0910189226269722,-0.18387043476104736,0.4306600093841553
1753234917076436500,8.0344365234375,0.09162978827953339,-0.03848451003432274,0.4098905920982361
1753234917092409000,8.0504091796875,0.10445795953273773,0.02871066704392433,0.3903428912162781
1753234917108445000,8.06644482421875,0.10018189996480942,-0.10201449692249298,0.30970868468284607
1753234917124454700,8.08245458984375,0.10995574295520782,-0.21991148591041565,0.21991148591041565
1753234917140425700,8.09842578125,0.0708603709936142,-0.3323107063770294,0.17592918872833252
1753234917156409300,8.114409423828125,-0.00366519158706069,-0.31093040108680725,0.22418753802776337
1753234917172433000,8.130432861328124,-0.09529497474431992,-0.28038713335990906,0.34574973583221436
1753234917188419300,8.14641943359375,-0.17104226350784302,-0.34208452701568604,0.4190535545349121
1753234917204458000,8.1624580078125,-0.23151792585849762,-0.3176499307155609,0.3891211748123169
1753234917220431600,8.178431640625,-0.2590068578720093,-0.21868975460529327,0.2223549485206604
1753234917252443400,8.210443359375,-0.2119702398777008,-0.07757988572120667,-0.09712757170200348
1753234917268487400,8.2264873046875,-0.22357667982578278,-0.003054326167330146,-0.23579397797584534
1753234917284544500,8.24254443359375,-0.3640756905078888,0.15821409225463867,-0.4996877610683441
1753234917300523800,8.258523681640625,-0.5308418869972229,0.3066543638706207,-0.7745771408081055
1753234917316516600,8.2745166015625,-0.6597344875335693,0.22907446324825287,-0.9920451641082764
1753234917332492300,8.2904921875,-0.598647952079773,0.03787364438176155,-0.912021815776825
1753234917348484600,8.306484619140624,-0.4605923891067505,-0.25473082065582275,-0.6059783101081848
1753234917364499000,8.3224990234375,-0.25961771607398987,-0.47830748558044434,-0.1716531366109848
1753234917380476000,8.338475830078124,-0.04948008432984352,-0.4294382631778717,0.11484266817569733
1753234917396465200,8.354465087890626,0.10201449692249298,-0.21441370248794556,0.18997909128665924
1753234917412486100,8.370486083984375,0.12400564551353455,0.018325956538319588,0.013439035043120384
1753234917428519000,8.386518798828124,0.09712757170200348,0.19425514340400696,-0.3677408695220947
1753234917444534000,8.402533935546876,0.04398229718208313,0.2822197377681732,-0.6835582256317139
1753234917460509000,8.418509033203126,-0.04153883829712868,0.32009339332580566,-0.7770205736160278
1753234917476542500,8.43454248046875,-0.07147123664617538,0.18997909128665924,-0.5809328556060791
1753234917492518400,8.450518310546874,-0.09834930300712585,0.10506882518529892,-0.18814650177955627
1753234917508534300,8.4665341796875,-0.10873401165008545,0.13316862285137177,0.28099802136421204
1753234917524592000,8.482592041015625,-0.07819075137376785,0.17287486791610718,0.5216789245605469
1753234917540567300,8.4985673828125,-0.04886921867728233,0.25106561183929443,0.5534439086914062
1753234917556556300,8.514556396484375,-0.01038470957428217,0.2370157092809677,0.3787364661693573
1753234917572526800,8.53052685546875,0.02871066704392433,0.10995574295520782,0.0708603709936142
1753234917588560100,8.54656005859375,0.051312681287527084,-0.051312681287527084,-0.14477506279945374
1753234917604574200,8.56257421875,0.04886921867728233,-0.23518311977386475,-0.18448130786418915
1753234917620548900,8.578548828125,0.06291911751031876,-0.39217549562454224,-0.05009094998240471
1753234917636536800,8.594536865234375,0.08002334833145142,-0.38179078698158264,0.1264491081237793
1753234917652561700,8.610561767578124,0.07269296050071716,-0.20036379992961884,0.19425514340400696
1753234917668560600,8.626560546875,0.07819075137376785,0.006108652334660292,0.11423180252313614
1753234917684575500,8.642575439453125,0.11423180252313614,0.2070833146572113,0
1753234917700598500,8.6585986328125,0.1368338167667389,0.2431243658065796,-0.05009094998240471
1753234917716638200,8.67463818359375,0.1569923609495163,0.11056660860776901,-0.0507018156349659
1753234917732624400,8.690624267578125,0.18570303916931152,-0.06719517707824707,-0.021991148591041565
1753234917748676000,8.706676025390625,0.2993239760398865,-0.14538592100143433,0.012217304669320583
1753234917764724700,8.722724853515626,0.4080579876899719,-0.1661553531885147,-0.02321287989616394
1753234917780751000,8.738751220703126,0.40194934606552124,-0.12522737681865692,-0.2583959996700287
1753234917796739600,8.754739501953125,0.24678955972194672,0.14416420459747314,-0.5418374538421631
1753234917812713000,8.770712890625,0.14049901068210602,0.5143485069274902,-0.49785518646240234
1753234917828705500,8.78670556640625,0.10873401165008545,0.607200026512146,-0.07208210229873657
1753234917844721700,8.8027216796875,0.15271630883216858,0.4392121136188507,0.31031954288482666
1753234917860695800,8.81869580078125,0.1667662113904953,0.18509216606616974,0.44593164324760437
1753234917876681700,8.834681640625,0.14782938361167908,-0.0354301854968071,0.2528982162475586
1753234917892703500,8.850703369140625,0.09834930300712585,-0.24984388053417206,-0.1771509200334549
1753234917908739300,8.8667392578125,0.09896016865968704,-0.18875735998153687,-0.5907067060470581
1753234917924755500,8.88275537109375,0.07208210229873657,-0.05009094998240471,-0.8454375267028809
1753234917940732400,8.898732421875,-0.03420845419168472,0.16859880089759827,-0.7629706859588623
1753234917956766200,8.91476611328125,-0.12217304855585098,0.2064724564552307,-0.44654250144958496
1753234917972744200,8.930744140625,-0.13011430203914642,0.009773843921720982,-0.05009094998240471
1753234917988775700,8.946775634765626,-0.05314527451992035,-0.2681698501110077,0.23335053026676178
1753234918004831700,8.962831787109375,-0.001832595793530345,-0.39217549562454224,0.44776421785354614
1753234918020806700,8.978806640625,0.015882495790719986,-0.36102136969566345,0.4954117238521576
1753234918036792000,8.9947919921875,0.06230825558304787,-0.152105450630188,0.44226643443107605
1753234918052762600,9.0107626953125,0.05619960278272629,0.05619960278272629,0.3677408695220947
1753234918068799700,9.0267998046875,0.03787364438176155,0.022602014243602753,0.303600013256073
1753234918084815400,9.0428154296875,0.04459316283464432,-0.12461651116609573,0.26022860407829285
1753234918100798200,9.058798095703125,0.001832595793530345,-0.12400564551353455,0.2993239760398865
1753234918116841200,9.07484130859375,-0.1563815027475357,-0.2370157092809677,0.40133845806121826
1753234918132871200,9.09087109375,-0.2070833146572113,-0.23396138846874237,0.5180137157440186
1753234918148863700,9.10686376953125,-0.2076941877603531,-0.2822197377681732,0.6481280326843262
1753234918164903400,9.1229033203125,-0.2223549485206604,-0.45142942667007446,0.636521577835083
1753234918180892200,9.13889208984375,-0.20586158335208893,-0.5577199459075928,0.41722095012664795
1753234918196947700,9.15494775390625,-0.17531833052635193,-0.45142942667007446,0.1918116807937622
1753234918212922400,9.17092236328125,-0.17043140530586243,-0.2687807083129883,0.06169738993048668
1753234918228957000,9.18695703125,-0.18936823308467865,-0.04764748737215996,0.06902777403593063
1753234918245016000,9.20301611328125,-0.2272418737411499,0.060475658625364304,0.11178833991289139
1753234918260994800,9.218994873046874,-0.3029891550540924,0.2382374405860901,0.12034045159816742
1753234918276986000,9.234986083984374,-0.44715335965156555,0.37629300355911255,0.13316862285137177
1753234918292965600,9.250965576171875,-0.6145304441452026,0.30482175946235657,0.16371189057826996
1753234918308965600,9.266965576171875,-0.6475171446800232,-0.0659734457731247,0.08246681094169617
1753234918324984800,9.28298486328125,-0.45753806829452515,-0.4795292317867279,-0.11423180252313614
1753234918340970000,9.298969970703125,-0.2620611786842346,-0.6377432942390442,-0.2889392673969269
1753234918356971000,9.314970947265625,-0.11972958594560623,-0.5571091175079346,-0.41172316670417786
1753234918373004300,9.33100439453125,-0.013439035043120384,-0.18020524084568024,-0.4801400899887085
1753234918389060000,9.34706005859375,0.016493361443281174,0.21930062770843506,-0.5290092825889587
1753234918405111800,9.36311181640625,-0.005497787147760391,0.5106833577156067,-0.5522221922874451
1753234918421107700,9.379107666015624,-0.013439035043120384,0.5467243790626526,-0.5119050741195679
1753234918437164800,9.395164794921875,0.001832595793530345,0.4098905920982361,-0.32131510972976685
1753234918453155000,9.411155029296875,-0.004886921960860491,0.22968533635139465,-0.059864792972803116
1753234918469180400,9.427180419921875,-0.022602014243602753,0.1160643994808197,0.21624629199504852
1753234918485241600,9.44324169921875,0.0354301854968071,0.14233160018920898,0.35185837745666504
1753234918501256700,9.459256591796875,0.08735372871160507,0.27000242471694946,0.3995058834552765
1753234918517294300,9.47529443359375,0.1014036312699318,0.3903428912162781,0.3799581825733185
1753234918533269200,9.491269287109375,0.11667526513338089,0.41661009192466736,0.3182607889175415
1753234918549305000,9.50730517578125,0.12034045159816742,0.3445279896259308,0.22846360504627228
1753234918565321700,9.52332177734375,0.1215621829032898,0.17287486791610718,0.1472185254096985
1753234918581299000,9.539298828125,0.14538592100143433,-0.13011430203914642,0.02871066704392433
1753234918597283000,9.555282958984375,0.17470745742321014,-0.35552358627319336,-0.003054326167330146
1753234918613307400,9.571307373046874,0.14782938361167908,-0.313373863697052,0.051312681287527084
1753234918629299000,9.587298828125,0.09834930300712585,-0.056810468435287476,0.1569923609495163
1753234918645312300,9.603312255859375,0.031154127791523933,0.15332718193531036,0.24617868661880493
1753234918661319400,9.6193193359375,0.01466076634824276,0.24678955972194672,0.25534167885780334
1753234918677355500,9.63535546875,0.06230825558304787,0.28649580478668213,0.15882496535778046
1753234918693329700,9.65132958984375,0.10506882518529892,0.14538592100143433,-0.06536258012056351
1753234918709400300,9.667400390625,0.2119702398777008,0.04459316283464432,-0.2119702398777008
1753234918725458700,9.683458740234375,0.4080579876899719,-0.02626720629632473,-0.17287486791610718
1753234918741443000,9.699443115234375,0.5442809462547302,-0.07635815441608429,-0.07147123664617538
1753234918757432300,9.715432373046875,0.6279694437980652,-0.05742133408784866,-0.006719517521560192
1753234918773405400,9.731405517578125,0.4862487316131592,0.05864306539297104,-0.03176499158143997
1753234918789399300,9.7473994140625,0.28649580478668213,0.29077184200286865,-0.02321287989616394
1753234918805416200,9.763416259765625,0.16249015927314758,0.4178318381309509,0.1612684279680252
1753234918821394000,9.779393798828124,0.17776179313659668,0.2974913716316223,0.35735616087913513
1753234918837384000,9.795384033203124,0.22052235901355743,0.09162978827953339,0.4251621961593628
1753234918853405000,9.811405029296875,0.22540926933288574,-0.12095131725072861,0.25595253705978394
1753234918869438200,9.827438232421875,0.2571742534637451,-0.29016098380088806,-0.18814650177955627
1753234918885454000,9.8434541015625,0.2718350291252136,-0.2431243658065796,-0.5955936312675476
1753234918901431600,9.859431640625,0.24373523890972137,-0.05497787147760391,-0.8857545852661133
1753234918917470200,9.87547021484375,0.22052235901355743,0.11178833991289139,-0.8503243923187256
1753234918933457000,9.891456787109375,0.18936823308467865,0.2626720666885376,-0.5571091175079346
1753234918949500400,9.90750048828125,0.14416420459747314,0.2926044464111328,-0.13072516024112701
1753234918965560600,9.923560546875,0.12278391420841217,0.17531833052635193,0.15027284622192383
1753234918981542000,9.9395419921875,0.12950342893600464,-0.0708603709936142,0.34208452701568604
1753234918997532000,9.955531982421874,0.2064724564552307,-0.192422553896904,0.4398229718208313
1753234919013506000,9.971506103515624,0.251676470041275,-0.24190263450145721,0.4331034719944
1753234919029547500,9.987547607421876,0.2791654169559479,-0.18387043476104736,0.323147714138031
1753234919045563400,10.0035634765625,0.2889392673969269,-0.04459316283464432,0.1411098688840866
1753234919061539300,10.019539306640626,0.25473082065582275,0.05253441259264946,0.006719517521560192
1753234919077528600,10.035528564453125,0.14477506279945374,0.024434609338641167,-0.08491026610136032
1753234919093551400,10.05155126953125,-0.007941247895359993,-0.036651913076639175,-0.11301007121801376
1753234919109544200,10.067544189453125,-0.10567969083786011,-0.18387043476104736,0.01771509274840355
1753234919125562400,10.083562255859375,-0.2217440903186798,-0.24373523890972137,0.33108896017074585
1753234919141568000,10.099568115234375,-0.32498031854629517,-0.21807889640331268,0.5705481171607971
1753234919157604600,10.1156044921875,-0.3842342495918274,-0.14538592100143433,0.6126978397369385
1753234919173577000,10.131576904296875,-0.3646865487098694,-0.1319468915462494,0.4489859640598297
1753234919189605000,10.147605224609375,-0.31642818450927734,-0.21135938167572021,0.15760323405265808
1753234919205660200,10.16366015625,-0.304210901260376,-0.26511552929878235,-0.05497787147760391
1753234919221636400,10.17963623046875,-0.3591887652873993,-0.2119702398777008,-0.20525072515010834
1753234919237625900,10.1956259765625,-0.5002986192703247,-0.036041051149368286,-0.4056145250797272
1753234919253597700,10.21159765625,-0.6328563690185547,0.18448130786418915,-0.6499606370925903
1753234919269588700,10.227588623046875,-0.6774495840072632,0.36651915311813354,-0.8063421249389648
1753234919285600300,10.243600341796874,-0.6041457056999207,0.2590068578720093,-0.6499606370925903
1753234919301574100,10.25957421875,-0.4196644127368927,-0.11972958594560623,-0.2119702398777008
1753234919317560300,10.275560302734375,-0.21319197118282318,-0.4239404797554016,0.13439035415649414
1753234919333583600,10.29158349609375,-0.031154127791523933,-0.5424483418464661,0.3182607889175415
1753234919349616000,10.3076162109375,0.0806342139840126,-0.4349360466003418,0.24556782841682434
1753234919365631000,10.323630859375,0.09224065393209457,-0.1820378452539444,-0.054367005825042725
1753234919381607700,10.339607666015626,0.04214970022439957,0.12339477986097336,-0.5180137157440186
1753234919397641700,10.355641845703126,-0.036651913076639175,0.2565633952617645,-0.7904596328735352
1753234919413624000,10.3716240234375,-0.10506882518529892,0.22846360504627228,-0.7898487448692322
1753234919429624800,10.387624755859376,-0.1111774742603302,0.11239920556545258,-0.5650503635406494
1753234919445676500,10.403676513671876,-0.11178833991289139,0.06780604273080826,-0.2272418737411499
1753234919461662000,10.419661865234374,-0.09773843735456467,0.08124507963657379,0.036041051149368286
1753234919477644800,10.435644775390625,-0.05925392732024193,0.15760323405265808,0.22602014243602753
1753234919493612300,10.4516123046875,-0.04153883829712868,0.22846360504627228,0.3176499307155609
1753234919509647600,10.467647705078125,-0.014049900695681572,0.27000242471694946,0.3029891550540924
1753234919525659600,10.48365966796875,0.029932396486401558,0.28466320037841797,0.2015855312347412
1753234919541636000,10.499635986328125,0.04214970022439957,0.21135938167572021,0.10384709388017654
1753234919557622500,10.51562255859375,0.056810468435287476,0.06536258012056351,0.03481931984424591
1753234919573641200,10.53164111328125,0.09224065393209457,-0.13011430203914642,-0.022602014243602753
1753234919589629000,10.54762890625,0.152105450630188,-0.342695415019989,-0.0403171069920063
1753234919605645600,10.5636455078125,0.1612684279680252,-0.29138273000717163,0.051312681287527084
1753234919621622300,10.579622314453125,0.13805554807186127,-0.06658431142568588,0.21074850857257843
1753234919637654500,10.595654541015625,0.09651670604944229,0.13011430203914642,0.3927863538265228
1753234919653653500,10.611653564453125,0.08429940044879913,0.13988813757896423,0.4697553813457489
1753234919669683000,10.627682861328125,0.08368854224681854,0.07513642311096191,0.4184426963329315
1753234919685738500,10.643738525390624,0.10201449692249298,-0.02076941914856434,0.2626720666885376
1753234919701716000,10.659716064453125,0.21807889640331268,-0.08185594528913498,0.03237585723400116
1753234919733683700,10.69168359375,0.5143485069274902,0.027488935738801956,-0.25595253705978394
1753234919749676300,10.70767626953125,0.5455026626586914,0.11789698898792267,-0.3072652220726013
1753234919765693200,10.723693115234376,0.4544837474822998,0.2278527319431305,-0.2223549485206604
1753234919781670400,10.73967041015625,0.31093040108680725,0.34086281061172485,0.054367005825042725
1753234919797663200,10.755663330078125,0.2174680233001709,0.3072652220726013,0.3292563557624817
1753234919813689600,10.771689697265625,0.15882496535778046,0.17592918872833252,0.485027015209198
1753234919829722400,10.787722412109375,0.1062905490398407,0.04642575979232788,0.37751471996307373
1753234919845739500,10.803739501953125,0.06780604273080826,-0.09285151958465576,0.028099801391363144
1753234919861716500,10.819716552734375,0.06475171446800232,-0.10934487730264664,-0.34025195240974426
1753234919877750500,10.83575048828125,0.07513642311096191,0.01710422709584236,-0.6102544069290161
1753234919893739000,10.851739013671875,0.05619960278272629,0.1563815027475357,-0.6591235995292664
1753234919909745400,10.867745361328126,0.02871066704392433,0.251676470041275,-0.5204572081565857
1753234919925801000,10.883801025390625,0.004886921960860491,0.22052235901355743,-0.3023782968521118
1753234919941791200,10.899791259765625,0.012828170321881771,0.07513642311096191,-0.12522737681865692
1753234919957781500,10.915781494140624,0.024434609338641167,-0.1111774742603302,0.07391469180583954
1753234919973753300,10.93175341796875,0.012217304669320583,-0.13988813757896423,0.2021963894367218
1753234919989787400,10.947787353515626,0.007941247895359993,-0.006719517521560192,0.2840523421764374
1753234920005798400,10.96379833984375,0.00855211354792118,0.12217304855585098,0.3237585723400116
1753234920021770800,10.979770751953126,0.02626720629632473,0.19425514340400696,0.33597588539123535
1753234920037754400,10.99575439453125,0.05925392732024193,0.08368854224681854,0.3219259977340698
1753234920053776000,11.01177587890625,0.07941248267889023,-0.17409659922122955,0.29138273000717163
1753234920069776600,11.027776611328125,0.07880161702632904,-0.37201693654060364,0.2583959996700287
1753234920085793500,11.04379345703125,-0.004886921960860491,-0.4801400899887085,0.20952677726745605
1753234920101774600,11.059774658203125,-0.11728613078594208,-0.4703662395477295,0.16920967400074005
1753234920117817600,11.075817626953125,-0.22418753802776337,-0.30482175946235657,0.13805554807186127
1753234920133816800,11.09181689453125,-0.33108896017074585,-0.00855211354792118,0.1722639948129654
1753234920149847600,11.10784765625,-0.42271876335144043,0.20341812074184418,0.24678955972194672
1753234920165903000,11.123903076171874,-0.4300491213798523,0.2669481039047241,0.29626965522766113
1753234920181925000,11.139925048828125,-0.36590829491615295,0.18997909128665924,0.2736676335334778
1753234920197916200,11.155916259765625,-0.3286454975605011,0.0959058403968811,0.17043140530586243
1753234920213891000,11.17189111328125,-0.394008070230484,-0.039095375686883926,-0.10873401165008545
1753234920229885200,11.18788525390625,-0.49296826124191284,-0.19425514340400696,-0.5192354321479797
1753234920245899500,11.2038994140625,-0.5601634383201599,-0.3585779070854187,-1.018923282623291
1753234920261877200,11.219877197265625,-0.5222898125648499,-0.4703662395477295,-1.0384708642959595
1753234920277865500,11.235865478515626,-0.5161811113357544,-0.5393940210342407,-0.5412266254425049
1753234920293886700,11.25188671875,-0.4660901725292206,-0.5723807215690613,-0.04948008432984352
1753234920309917400,11.26791748046875,-0.2687807083129883,-0.5772676467895508,0.2828305959701538
1753234920325931000,11.283930908203125,-0.07513642311096191,-0.5699372887611389,0.313373863697052
1753234920341905400,11.299905517578125,-0.027488935738801956,-0.3695734739303589,0.003054326167330146
1753234920357937400,11.3159375,-0.03420845419168472,0.12339477986097336,-0.6145304441452026
1753234920373908000,11.331907958984376,-0.06536258012056351,0.5400048494338989,-1.086118459701538
1753234920389892400,11.347892333984374,-0.13377949595451355,0.7709119319915771,-1.2125675678253174
1753234920405948400,11.363948486328125,-0.17104226350784302,0.6695083379745483,-0.9663888216018677
1753234920421926100,11.379926025390626,-0.20463985204696655,0.31581732630729675,-0.4086688458919525
1753234920437920500,11.39592041015625,-0.2565633952617645,0.20341812074184418,0.09346238523721695
1753234920453893000,11.41189306640625,-0.2535090744495392,0.1411098688840866,0.46731191873550415
1753234920469929500,11.427929443359375,-0.21807889640331268,0.11728613078594208,0.6633996367454529
1753234920485912000,11.443912109375,-0.14844025671482086,0.2382374405860901,0.655458390712738
1753234920501882000,11.459882080078126,-0.0555887371301651,0.3378084897994995,0.4709770977497101
1753234920517867300,11.4758671875,0.03848451003432274,0.16249015927314758,0.17043140530586243
1753234920533886500,11.491886474609375,0.1569923609495163,0.02687807008624077,-0.18936823308467865
1753234920549872600,11.50787255859375,0.1869247704744339,-0.09285151958465576,-0.39645153284072876
1753234920565923000,11.523923095703125,0.18875735998153687,-0.16310101747512817,-0.4343251883983612
1753234920581900000,11.539900146484374,0.22479841113090515,-0.027488935738801956,-0.1918116807937622
1753234920597984300,11.555984375,0.26939156651496887,0.12828169763088226,0.252287358045578
1753234920613960700,11.571960693359374,0.25961771607398987,0.3604104816913605,0.6963863968849182
1753234920629995800,11.587995849609374,0.2474004179239273,0.5528330206871033,0.7800748944282532
1753234920646030300,11.6040302734375,0.2541199326515198,0.5302310585975647,0.5442809462547302
1753234920662008800,11.6200087890625,0.3286454975605011,0.25595253705978394,0.19853121042251587
1753234920693973800,11.651973876953125,0.6432411074638367,-0.1875356286764145,-0.1472185254096985
1753234920709964500,11.667964599609375,0.6823364496231079,-0.10445795953273773,-0.0555887371301651
1753234920725980200,11.683980224609375,0.6927211880683899,0.036041051149368286,-0.08185594528913498
1753234920741960400,11.69996044921875,0.6120869517326355,0.03420845419168472,-0.29565876722335815
1753234920757948700,11.71594873046875,0.4489859640598297,0.1563815027475357,-0.49846604466438293
1753234920773970200,11.73197021484375,0.35613444447517395,0.34086281061172485,-0.384845107793808
1753234920789999400,11.747999267578125,0.3084869384765625,0.3280346393585205,0.001832595793530345
1753234920806040000,11.7640400390625,0.30970868468284607,0.12278391420841217,0.2791654169559479
1753234920822015700,11.780015625,0.28649580478668213,-0.18631389737129211,0.34086281061172485
1753234920838046700,11.796046630859376,0.251676470041275,-0.4294382631778717,0.12461651116609573
1753234920854014000,11.812013916015625,0.2583959996700287,-0.4966334402561188,-0.2590068578720093
1753234920870001200,11.828001220703126,0.2431243658065796,-0.31031954288482666,-0.7293730974197388
1753234920886056200,11.84405615234375,0.18631389737129211,-0.15515977144241333,-0.9321803450584412
1753234920902062800,11.860062744140626,0.12889257073402405,-0.02382374368607998,-0.7635815739631653
1753234920918057000,11.876056884765624,0.10995574295520782,0.009773843921720982,-0.3787364661693573
1753234920934042400,11.89204248046875,0.13316862285137177,-0.12950342893600464,0.08857546001672745
1753234920950079000,11.908078857421875,0.15943582355976105,-0.2632829248905182,0.3378084897994995
1753234920966094300,11.92409423828125,0.1820378452539444,-0.24007004499435425,0.4050036668777466
1753234920982070500,11.940070556640626,0.16982053220272064,-0.06291911751031876,0.32620203495025635
1753234920998058000,11.95605810546875,0.12461651116609573,0.1514945775270462,0.21013765037059784
1753234921014078200,11.972078125,0.08124507963657379,0.25473082065582275,0.13561208546161652
1753234921030068000,11.98806787109375,0.07635815441608429,0.1716531366109848,0.10934487730264664
1753234921046131200,12.004131103515626,0.009773843921720982,-0.010995574295520782,0.0910189226269722
1753234921062115300,12.020115234375,-0.05253441259264946,-0.192422553896904,0.11301007121801376
1753234921078152700,12.036152587890625,-0.0806342139840126,-0.36713001132011414,0.23579397797584534
1753234921094124800,12.052124755859374,-0.1062905490398407,-0.44104471802711487,0.36651915311813354
1753234921110155500,12.068155517578125,-0.14233160018920898,-0.42577308416366577,0.3952298164367676
1753234921126189300,12.084189208984375,-0.18570303916931152,-0.2889392673969269,0.28466320037841797
1753234921142207000,12.10020703125,-0.24434609711170197,-0.07941248267889023,0.14049901068210602
1753234921166179300,12.124179443359376,-0.28527405858039856,0.10934487730264664,0.09529497474431992
1753234921182152200,12.140152099609375,-0.27488934993743896,0.19486601650714874,0.1411098688840866
1753234921198189600,12.156189453125,-0.3439171314239502,0.32131510972976685,0.10567969083786011
1753234921214157600,12.172157470703125,-0.48808133602142334,0.45265114307403564,-0.06780604273080826
1753234921230145000,12.18814501953125,-0.655458390712738,0.49785518646240234,-0.3433062732219696
1753234921246159000,12.2041591796875,-0.7409795522689819,0.26939156651496887,-0.4508185386657715
1753234921262173700,12.220173583984375,-0.6994407176971436,-0.1820378452539444,-0.2687807083129883
1753234921278208000,12.2362080078125,-0.5754350423812866,-0.6340781450271606,0.028099801391363144
1753234921294178300,12.25217822265625,-0.4001167416572571,-0.8881980776786804,0.2565633952617645
1753234921310212000,12.268212158203125,-0.24617868661880493,-0.8234463334083557,0.24862214922904968
1753234921326177000,12.284177001953125,-0.11423180252313614,-0.5766568183898926,0.001832595793530345
1753234921342147800,12.30014794921875,-0.00427605677396059,-0.056810468435287476,-0.5338962078094482
1753234921358176500,12.316176513671875,-0.018936822190880775,0.38728857040405273,-0.970054030418396
1753234921374186800,12.332186767578126,-0.16982053220272064,0.6579018831253052,-1.1105530261993408
1753234921390173200,12.348173095703125,-0.24373523890972137,0.6786713004112244,-0.8857545852661133
1753234921406184200,12.36418408203125,-0.28099802136421204,0.48747047781944275,-0.36224308609962463
1753234921422202600,12.38020263671875,-0.28038713335990906,0.2840523421764374,0.15393804013729095
1753234921438258000,12.3962578125,-0.21013765037059784,0.2125810980796814,0.5546656250953674
1753234921454229800,12.412229736328126,-0.14538592100143433,0.2571742534637451,0.618195652961731
1753234921470219500,12.428219482421875,-0.10201449692249298,0.29565876722335815,0.47708576917648315
1753234921486232600,12.444232666015624,-0.04459316283464432,0.3286454975605011,0.21013765037059784
1753234921502200800,12.460200927734375,-0.012828170321881771,0.21441370248794556,-0.0012217304902151227
1753234921518232000,12.476232177734374,0.012828170321881771,-0.0910189226269722,-0.08368854224681854
1753234921534207700,12.492207763671875,0.04398229718208313,-0.3066543638706207,0.012828170321881771
1753234921550241500,12.508241455078124,0.11301007121801376,-0.423329621553421,0.2638937830924988
1753234921566207500,12.52420751953125,0.1459967941045761,-0.3744603991508484,0.5338962078094482
1753234921582230500,12.54023046875,0.11728613078594208,-0.08918632566928864,0.759916365146637
1753234921598273800,12.556273681640626,0.12034045159816742,0.2626720666885376,0.7806857824325562
1753234921614331600,12.57233154296875,0.09773843735456467,0.45142942667007446,0.6291912198066711
1753234921630321700,12.58832177734375,0.09957103431224823,0.29077184200286865,0.3243694305419922
1753234921654275600,12.612275634765625,0.1612684279680252,-0.08246681094169617,-0.13377949595451355
1753234921670264800,12.628264892578125,0.2791654169559479,-0.04214970022439957,-0.19792033731937408
1753234921686277600,12.644277587890626,0.4043927788734436,0.016493361443281174,-0.03787364438176155
1753234921702249700,12.660249755859375,0.5393940210342407,0.0757472887635231,0.24556782841682434
1753234921718235000,12.67623486328125,0.5766568183898926,-0.009773843921720982,0.35185837745666504
1753234921734253300,12.69225341796875,0.5387831330299377,0.06475171446800232,0.33536502718925476
1753234921750284500,12.708284423828125,0.4001167416572571,0.27550023794174194,0.3274237811565399
1753234921766297900,12.7242978515625,0.23579397797584534,0.43737950921058655,0.3488040566444397
1753234921782272500,12.7402724609375,0.16920967400074005,0.3738495409488678,0.31642818450927734
1753234921798306000,12.75630615234375,0.1472185254096985,0.0403171069920063,0.13255776464939117
1753234921814281500,12.772281494140625,0.14477506279945374,-0.34758231043815613,-0.18936823308467865
1753234921830278400,12.7882783203125,0.14782938361167908,-0.42699480056762695,-0.5931501388549805
1753234921846337300,12.804337158203126,0.08368854224681854,-0.13316862285137177,-0.9920451641082764
1753234921862322400,12.820322509765624,-0.009162978269159794,0.14905111491680145,-1.0653489828109741
1753234921878324200,12.83632421875,-0.05253441259264946,0.3066543638706207,-0.7654141783714294
1753234921894313500,12.8523134765625,-0.028099801391363144,0.24373523890972137,-0.3634648323059082
1753234921910351600,12.8683515625,-0.01160643994808197,-0.06352998316287994,-0.018325956538319588
1753234921926367200,12.8843671875,0.01771509274840355,-0.31459560990333557,0.0757472887635231
1753234921942342700,12.9003427734375,0.06108652427792549,-0.4282165467739105,0.06475171446800232
1753234921958329300,12.916329345703126,0.09773843735456467,-0.39217549562454224,0.04581489413976669
1753234921974354400,12.9323544921875,0.11972958594560623,-0.3384193480014801,0.07024950534105301
1753234921990346500,12.948346435546876,0.12400564551353455,-0.18814650177955627,0.13439035415649414
1753234922006363100,12.964363037109376,0.0757472887635231,-0.06536258012056351,0.17348572611808777
1753234922022339000,12.980339111328124,0.0555887371301651,-0.01710422709584236,0.16920967400074005
1753234922038383600,12.996383544921875,0.05314527451992035,-0.021991148591041565,0.12950342893600464
1753234922054358300,13.012358154296875,0.04337143152952194,-0.10445795953273773,0.12889257073402405
1753234922070398200,13.028398193359376,-0.00366519158706069,-0.16493362188339233,0.182648703455925
1753234922086454000,13.0444541015625,-0.05253441259264946,-0.24923302233219147,0.24556782841682434
1753234922102447400,13.060447265625,-0.12950342893600464,-0.28649580478668213,0.26083946228027344
1753234922118436400,13.076436279296875,-0.20586158335208893,-0.25961771607398987,0.20341812074184418
1753234922134406000,13.092406005859376,-0.2730567753314972,-0.15943582355976105,0.06475171446800232
1753234922150397400,13.1083974609375,-0.28649580478668213,-0.07819075137376785,-0.0403171069920063
1753234922166411000,13.124410888671875,-0.2877175211906433,0.08796459436416626,-0.07941248267889023
1753234922182386700,13.14038671875,-0.35552358627319336,0.2626720666885376,-0.08002334833145142
1753234922198375200,13.156375244140625,-0.46853363513946533,0.3543018400669098,-0.18997909128665924
1753234922214396400,13.172396484375,-0.5589417219161987,0.36590829491615295,-0.4190535545349121
1753234922230429400,13.188429443359375,-0.598647952079773,0.2877175211906433,-0.6414085030555725
1753234922246445000,13.204445068359375,-0.5393940210342407,0.039706241339445114,-0.6298020482063293
1753234922262421500,13.22042138671875,-0.4251621961593628,-0.2785545587539673,-0.3897320330142975
1753234922278456800,13.236456787109375,-0.2919935882091522,-0.6102544069290161,-0.010995574295520782
1753234922294436900,13.252436767578125,-0.18570303916931152,-0.6713408827781677,0.23335053026676178
1753234922310438100,13.268438232421875,-0.0757472887635231,-0.5057964324951172,0.2724458873271942
1753234922326493200,13.2844931640625,-0.03848451003432274,-0.20463985204696655,0.08491026610136032
1753234922342468000,13.300468017578124,-0.11178833991289139,0.07269296050071716,-0.35185837745666504
1753234922358456300,13.316456298828125,-0.18814650177955627,0.13439035415649414,-0.6902777552604675
1753234922374443000,13.332443115234375,-0.22479841113090515,0.08002334833145142,-0.7910705208778381
1753234922390504400,13.34850439453125,-0.20097467303276062,0.00366519158706069,-0.6157521605491638
1753234922406520300,13.364520263671874,-0.1270599663257599,0.08552113175392151,-0.2828305959701538
1753234922422508800,13.3805087890625,-0.04337143152952194,0.3836233615875244,0.17287486791610718
1753234922438514700,13.3965146484375,-0.005497787147760391,0.6041457056999207,0.4538728892803192
1753234922454537000,13.412536865234374,0.039706241339445114,0.6872233748435974,0.5503895878791809
1753234922470526200,13.428526123046876,0.04398229718208313,0.6542366743087769,0.504574716091156
1753234922486546700,13.444546630859374,0.02076941914856434,0.5198463201522827,0.36651915311813354
1753234922502525000,13.46052490234375,-0.00366519158706069,0.3188716471195221,0.24129177629947662
1753234922518557400,13.476557373046875,0.021380282938480377,0.04886921867728233,0.17470745742321014
1753234922534534400,13.492534423828126,0.08918632566928864,-0.21441370248794556,0.1771509200334549
1753234922550581200,13.508581298828124,0.1508837193250656,-0.20525072515010834,0.2474004179239273
1753234922566637600,13.524637451171875,0.13072516024112701,0.001832595793530345,0.34086281061172485
1753234922582622200,13.540622314453126,0.09407325088977814,0.17409659922122955,0.3897320330142975
1753234922598623200,13.556623291015624,0.09834930300712585,0.30543261766433716,0.40622538328170776
1753234922614643700,13.572643798828125,0.10201449692249298,0.24495697021484375,0.35613444447517395
1753234922630635800,13.5886357421875,0.1215621829032898,0.11178833991289139,0.2021963894367218
1753234922646649600,13.604649658203124,0.182648703455925,0.02932153269648552,0.02626720629632473
1753234922662630000,13.6206298828125,0.3127630054950714,-0.006108652334660292,-0.1014036312699318
1753234922678624500,13.63662451171875,0.4905247986316681,-0.17348572611808777,-0.1313360333442688
1753234922694646300,13.652646240234375,0.5687155723571777,-0.3219259977340698,-0.2064724564552307
1753234922710684700,13.6686845703125,0.4990769028663635,-0.27977627515792847,-0.4758640229701996
1753234922726701800,13.684701904296874,0.3494149148464203,0.06902777403593063,-0.6609562039375305
1753234922742681900,13.700681884765626,0.1667662113904953,0.6035348773002625,-0.4960225820541382
1753234922758714600,13.716714599609375,0.08491026610136032,0.8026769161224365,-0.05375614017248154
1753234922774689000,13.73268896484375,0.09468411654233932,0.5406157374382019,0.3995058834552765
1753234922790706000,13.748705810546875,0.13255776464939117,0.2021963894367218,0.4807509481906891
1753234922806761200,13.76476123046875,0.1667662113904953,-0.19303341209888458,0.2431243658065796
1753234922822739500,13.780739501953125,0.18509216606616974,-0.49724429845809937,-0.2968805134296417
1753234922838728700,13.796728759765625,0.15454891324043274,-0.4056145250797272,-0.7635815739631653
1753234922854702800,13.812702880859375,0.07696902006864548,-0.06475171446800232,-1.0476338863372803
1753234922870741000,13.828740966796875,0.015271631069481373,0.2064724564552307,-0.9388998746871948
1753234922886755000,13.844755126953125,-0.02015855349600315,0.30482175946235657,-0.49785518646240234
1753234922902735600,13.860735595703124,-0.01160643994808197,0.06169738993048668,-0.03848451003432274
1753234922918736600,13.876736572265624,0.05925392732024193,-0.2687807083129883,0.3335324227809906
1753234922934759700,13.892759765625,0.1466076523065567,-0.45814892649650574,0.543059229850769
1753234922950752000,13.908751953125,0.15271630883216858,-0.3842342495918274,0.5393940210342407
1753234922966767000,13.92476708984375,0.1319468915462494,-0.2125810980796814,0.40072759985923767
1753234922982741200,13.9407412109375,0.1313360333442688,-0.08735372871160507,0.22052235901355743
1753234922998772200,13.956772216796875,0.08979719132184982,-0.015271631069481373,0.05314527451992035
1753234923014741200,13.9727412109375,0.06536258012056351,-0.11911872029304504,-0.007941247895359993
1753234923030798800,13.988798828125,0.05009094998240471,-0.25045475363731384,0.04581489413976669
1753234923046852000,14.00485205078125,-0.021991148591041565,-0.26511552929878235,0.16798794269561768
1753234923062864000,14.02086376953125,-0.10384709388017654,-0.22907446324825287,0.2718350291252136
1753234923078864100,14.036864013671876,-0.1417207419872284,-0.17043140530586243,0.21135938167572021
1753234923094851600,14.0528515625,-0.17959438264369965,-0.08124507963657379,0.03787364438176155
1753234923110845700,14.068845703125,-0.2272418737411499,0.07330382615327835,-0.14844025671482086
1753234923126838500,14.084838623046876,-0.2816088795661926,0.1966986060142517,-0.17531833052635193
1753234923142813700,14.100813720703124,-0.2968805134296417,0.20036379992961884,-0.06230825558304787
1753234923166835200,14.124835205078124,-0.303600013256073,0.1160643994808197,0.1368338167667389
1753234923182850600,14.1408505859375,-0.3335324227809906,0.11484266817569733,0.1514945775270462
1753234923198885600,14.1568857421875,-0.4080579876899719,0.17287486791610718,-0.01710422709584236
1753234923214859000,14.17285888671875,-0.5516113042831421,0.2987131178379059,-0.22479841113090515
1753234923230900000,14.18889990234375,-0.5833762884140015,0.2681698501110077,-0.2590068578720093
1753234923246869800,14.204869873046874,-0.4911356568336487,0.10262536257505417,-0.17592918872833252
1753234923262883000,14.220883056640625,-0.4239404797554016,-0.13255776464939117,-0.03726277872920036
1753234923278919400,14.23691943359375,-0.34208452701568604,-0.31520646810531616,0.07880161702632904
1753234923294933000,14.25293310546875,-0.22907446324825287,-0.5167919993400574,0
1753234923310971100,14.26897119140625,-0.0861319974064827,-0.4489859640598297,-0.3066543638706207
1753234923326940000,14.28493994140625,0.003054326167330146,-0.11911872029304504,-0.8020660877227783
1753234923342959900,14.3009599609375,-0.012828170321881771,0.17104226350784302,-1.1246029138565063
1753234923358998000,14.316998046875,-0.08552113175392151,0.4098905920982361,-1.147204875946045
1753234923374974700,14.332974609375,-0.1270599663257599,0.40194934606552124,-0.9040805697441101
1753234923390975500,14.3489755859375,-0.1514945775270462,0.19547687470912933,-0.4098905920982361
1753234923406990600,14.364990478515624,-0.13561208546161652,-0.04886921867728233,0.039095375686883926
1753234923422976300,14.380976318359375,-0.09040805697441101,-0.04459316283464432,0.3640756905078888
1753234923439011600,14.397011474609375,-0.08368854224681854,0.22357667982578278,0.5247332453727722
1753234923454986200,14.412986328125,-0.08552113175392151,0.4746423065662384,0.5259549617767334
1753234923471020000,14.42902001953125,-0.06536258012056351,0.5687155723571777,0.44654250144958496
1753234923486987000,14.444987060546875,-0.02382374368607998,0.3689626157283783,0.35063666105270386
1753234923503049500,14.461049560546876,0.0555887371301651,-0.042760565876960754,0.28099802136421204
1753234923519086300,14.47708642578125,0.08185594528913498,-0.21930062770843506,0.32498031854629517
1753234923535107600,14.493107666015625,0.01771509274840355,-0.19425514340400696,0.4538728892803192
1753234923551108000,14.509108154296875,-0.007941247895359993,-0.18875735998153687,0.4990769028663635
1753234923567072300,14.525072265625,-0.0024434609804302454,-0.12889257073402405,0.47830748558044434
1753234923583058700,14.54105859375,-0.006108652334660292,-0.04886921867728233,0.45814892649650574
1753234923599116000,14.557115966796875,-0.003054326167330146,-0.07147123664617538,0.37690386176109314
1753234923615099600,14.573099609375,0.051312681287527084,-0.1007927656173706,0.10506882518529892
1753234923631093000,14.589093017578126,0.04581489413976669,-0.13988813757896423,-0.19914206862449646
1753234923655129000,14.613129150390625,0.009162978269159794,-0.07330382615327835,-0.4703662395477295
1753234923671158000,14.629157958984376,0.07880161702632904,0.036041051149368286,-0.36529740691185
1753234923687209500,14.64520947265625,0.15027284622192383,0.15882496535778046,-0.14233160018920898
1753234923703185000,14.661184814453126,0.15454891324043274,0.12034045159816742,0.001832595793530345
1753234923719217000,14.677216796875,0.11301007121801376,0.1007927656173706,0.16737708449363708
1753234923735192000,14.693192138671876,0.05742133408784866,0.20036379992961884,0.36651915311813354
1753234923751225900,14.709225830078125,0.042760565876960754,0.1722639948129654,0.5754350423812866
1753234923767281700,14.72528173828125,0.05375614017248154,0.06719517707824707,0.6407976150512695
1753234923783290400,14.741290283203124,0.036651913076639175,-0.10873401165008545,0.5271766781806946
1753234923799275000,14.75727490234375,0.012828170321881771,-0.37568211555480957,0.19608774781227112
1753234923815252000,14.773251953125,-0.00733038317412138,-0.5650503635406494,-0.1417207419872284
1753234923831300900,14.78930078125,-0.05253441259264946,-0.4813618063926697,-0.44226643443107605
1753234923847317500,14.8053173828125,-0.1062905490398407,-0.32131510972976685,-0.5522221922874451
1753234923863303700,14.8213037109375,-0.16432274878025055,-0.26022860407829285,-0.4147774875164032
1753234923879307800,14.837307861328124,-0.2119702398777008,-0.21135938167572021,-0.10018189996480942
1753234923895339500,14.853339599609376,-0.24617868661880493,-0.17348572611808777,0.24923302233219147
1753234923911327000,14.869326904296875,-0.23640485107898712,-0.13927727937698364,0.4147774875164032
1753234923927342300,14.88534228515625,-0.2076941877603531,-0.11178833991289139,0.4434881806373596
1753234923943317200,14.901317138671875,-0.17837265133857727,-0.10201449692249298,0.36163222789764404
1753234923959399400,14.9173994140625,-0.18509216606616974,-0.07696902006864548,0.2675589919090271
1753234923975370200,14.933370361328125,-0.23396138846874237,-0.00855211354792118,0.17592918872833252
1753234923991399200,14.949399169921875,-0.29626965522766113,0.03237585723400116,0.10201449692249298
1753234924007455000,14.965455078125,-0.37629300355911255,0.09712757170200348,0.09040805697441101
1753234924023431400,14.981431396484375,-0.4502076804637909,0.182648703455925,0.15760323405265808
1753234924039439000,14.997439208984375,-0.5088507533073425,0.1111774742603302,0.2174680233001709
1753234924055424500,15.013424560546875,-0.5290092825889587,-0.04642575979232788,0.19975294172763824
1753234924071433500,15.02943359375,-0.5736024379730225,-0.2272418737411499,0.12950342893600464
1753234924087445000,15.045445068359374,-0.6224716901779175,-0.3927863538265228,0.04581489413976669
1753234924103433500,15.06143359375,-0.656069278717041,-0.3543018400669098,0.02076941914856434
1753234924119451400,15.077451416015625,-0.7000515460968018,-0.07880161702632904,0.04703662544488907
1753234924135469800,15.0934697265625,-0.7391469478607178,0.07819075137376785,0.02321287989616394
1753234924151505700,15.109505615234376,-0.7336491346359253,0.1160643994808197,-0.0861319974064827
1753234924167520500,15.1255205078125,-0.6878342628479004,0.15760323405265808,-0.19547687470912933
1753234924183494700,15.14149462890625,-0.7134906053543091,0.22418753802776337,-0.30115658044815063
1753234924199527400,15.15752734375,-0.7825183868408203,0.304210901260376,-0.41111230850219727
1753234924215499000,15.1734990234375,-0.8515461683273315,0.32681289315223694,-0.5021312236785889
1753234924231490000,15.189489990234375,-0.8717046976089478,0.15882496535778046,-0.4031710624694824
1753234924247549400,15.205549560546874,-0.8356636762619019,-0.1014036312699318,-0.13744467496871948
1753234924263528000,15.22152783203125,-0.7538077235221863,-0.41233405470848083,0.16798794269561768
1753234924279516000,15.237515869140625,-0.6823364496231079,-0.4862487316131592,0.2675589919090271
1753234924295488000,15.253488037109374,-0.6805039048194885,-0.3274237811565399,0.13377949595451355
1753234924311526700,15.269526611328125,-0.6829473376274109,0.059864792972803116,-0.1569923609495163
1753234924327541800,15.285541748046874,-0.6969972252845764,0.5057964324951172,-0.5797111392021179
1753234924343525000,15.301525146484375,-0.7519751191139221,0.626747727394104,-0.8393288254737854
1753234924359575600,15.317575439453124,-0.759305477142334,0.5345070958137512,-0.8979719281196594
1753234924375601400,15.333601318359374,-0.694553792476654,0.19425514340400696,-0.7031059265136719
1753234924391607000,15.34960693359375,-0.6346889734268188,-0.025656340643763542,-0.3396410644054413
1753234924407619600,15.36561962890625,-0.5919284224510193,-0.10873401165008545,0.13561208546161652
1753234924423606800,15.381606689453125,-0.5534439086914062,-0.02932153269648552,0.4508185386657715
1753234924439640300,15.397640380859375,-0.5381723046302795,0.22296582162380219,0.6487388610839844
1753234924455615500,15.413615478515625,-0.5448917746543884,0.3634648323059082,0.6505714654922485
1753234924471648500,15.4296484375,-0.5106833577156067,0.44593164324760437,0.5027421116828918
1753234924487680000,15.445679931640624,-0.4703662395477295,0.3225368559360504,0.32986724376678467
1753234924503657500,15.461657470703125,-0.40622538328170776,0.07941248267889023,0.2064724564552307
1753234924519641600,15.4776416015625,-0.3634648323059082,-0.192422553896904,0.21013765037059784
1753234924535615500,15.493615478515625,-0.35674530267715454,-0.28649580478668213,0.30543261766433716
1753234924551620000,15.5096201171875,-0.3549126982688904,-0.3078760802745819,0.4056145250797272
1753234924567639000,15.52563916015625,-0.33047810196876526,-0.20463985204696655,0.4355469346046448
1753234924583632400,15.54163232421875,-0.3170390725135803,-0.0659734457731247,0.403781920671463
1753234924599640600,15.557640625,-0.3017674386501312,0.02932153269648552,0.34208452701568604
1753234924615703800,15.573703857421876,-0.3139847218990326,0.08491026610136032,0.2528982162475586
1753234924631733800,15.589733642578125,-0.32620203495025635,0.04764748737215996,0.17043140530586243
1753234924647750100,15.605750244140625,-0.29565876722335815,-0.06108652427792549,0.07757988572120667
1753234924663730700,15.621730712890624,-0.182648703455925,-0.152105450630188,-0.039095375686883926
1753234924679771100,15.637771240234375,-0.0403171069920063,-0.19364428520202637,-0.1459967941045761
1753234924695743700,15.65374365234375,0.09040805697441101,-0.2125810980796814,-0.3066543638706207
1753234924711732200,15.669732177734375,0.08735372871160507,-0.13988813757896423,-0.4050036668777466
1753234924727790600,15.68579052734375,-0.001832595793530345,0.0757472887635231,-0.24923302233219147
1753234924743775200,15.701775146484374,-0.09224065393209457,0.3029891550540924,0.14233160018920898
1753234924759765800,15.717765869140624,-0.18631389737129211,0.342695415019989,0.5968153476715088
1753234924775741200,15.7337412109375,-0.22907446324825287,0.1563815027475357,0.7751879692077637
1753234924791778300,15.7497783203125,-0.27000242471694946,-0.0659734457731247,0.6982190012931824
1753234924807794200,15.765794189453125,-0.303600013256073,-0.36651915311813354,0.3219259977340698
1753234924823769300,15.781769287109375,-0.35063666105270386,-0.43188172578811646,-0.1667662113904953
1753234924839753500,15.79775341796875,-0.40744712948799133,-0.16371189057826996,-0.6487388610839844
1753234924855775200,15.813775146484375,-0.4660901725292206,0.12767083942890167,-0.8301658630371094
1753234924871784200,15.8297841796875,-0.5155702829360962,0.3988949954509735,-0.7538077235221863
1753234924887800800,15.84580078125,-0.5436700582504272,0.4740314185619354,-0.5473352670669556
1753234924903784700,15.86178466796875,-0.5564982295036316,0.30482175946235657,-0.31093040108680725
1753234924919839500,15.877839599609375,-0.5662720799446106,0.01771509274840355,-0.025656340643763542
1753234924935827000,15.893826904296875,-0.5577199459075928,-0.16920967400074005,0.20830504596233368
1753234924951858000,15.90985791015625,-0.5204572081565857,-0.25473082065582275,0.41661009192466736
1753234924967919900,15.925919921875,-0.4440990388393402,-0.26450464129447937,0.5082398653030396
1753234924983896600,15.941896484375,-0.4282165467739105,-0.23640485107898712,0.5308418869972229
1753234924999886300,15.95788623046875,-0.49357911944389343,-0.1270599663257599,0.4917465150356293
1753234925015859700,15.973859619140624,-0.5943718552589417,0.003054326167330146,0.44837507605552673
1753234925031874800,15.989874755859375,-0.6860016584396362,0.059864792972803116,0.45692721009254456
1753234925047894000,16.00589404296875,-0.7666358947753906,-0.05497787147760391,0.48808133602142334
1753234925063878100,16.021878173828124,-0.837496280670166,-0.3591887652873993,0.45814892649650574
1753234925079887600,16.0378876953125,-0.8594874143600464,-0.504574716091156,0.4447098970413208
1753234925095923500,16.05392333984375,-0.8881980776786804,-0.5674937963485718,0.44226643443107605
1753234925111977500,16.0699775390625,-0.9162978529930115,-0.5674937963485718,0.394008070230484
1753234925127974400,16.085974365234375,-0.9334021210670471,-0.44287729263305664,0.2883284091949463
1753234925143968000,16.101968017578123,-0.9492846131324768,-0.30482175946235657,0.19975294172763824
1753234925175988200,16.13398828125,-0.949895441532135,0.1007927656173706,0.04337143152952194
1753234925191979000,16.14997900390625,-1.0122036933898926,0.3628539443016052,-0.056810468435287476
1753234925208036400,16.166036376953127,-1.1533136367797852,0.46242499351501465,-0.2125810980796814
1753234925224050700,16.18205078125,-1.2687671184539795,0.3854559659957886,-0.3494149148464203
1753234925240041500,16.19804150390625,-1.302364706993103,0.0757472887635231,-0.4392121136188507
1753234925256018700,16.214018798828125,-1.2431107759475708,-0.3023782968521118,-0.403781920671463
1753234925272060400,16.230060302734376,-1.1227703094482422,-0.7367035150527954,-0.33292156457901
1753234925288078300,16.246078369140626,-1.0201449394226074,-0.836885392665863,-0.31031954288482666
1753234925304061700,16.262061767578125,-0.9443976879119873,-0.6407976150512695,-0.39767327904701233
1753234925320061700,16.278061767578127,-0.8857545852661133,-0.3341432809829712,-0.5760459303855896
1753234925336100400,16.294100341796874,-0.827722430229187,-0.0354301854968071,-0.8100073337554932
1753234925352110000,16.310110107421874,-0.7922922372817993,0.23029619455337524,-0.9645562171936035
1753234925368129500,16.326129638671876,-0.7550294399261475,0.2779437005519867,-0.8839219808578491
1753234925384123100,16.342123046875,-0.655458390712738,0.10445795953273773,-0.5778785347938538
1753234925399249700,16.357249755859375,-0.5436700582504272,-0.09957103431224823,-0.22602014243602753
1753234925415237400,16.3732373046875,-0.46181413531303406,-0.21502456068992615,0.11972958594560623
1753234925431290600,16.38929052734375,-0.43188172578811646,-0.08735372871160507,0.44776421785354614
1753234925447350000,16.40535009765625,-0.4593706727027893,0.26633724570274353,0.6383541822433472
1753234925463328300,16.421328369140625,-0.5125159621238708,0.4349360466003418,0.7409795522689819
1753234925479314200,16.437314208984375,-0.5009095072746277,0.3952298164367676,0.6585127115249634
1753234925495285500,16.453285400390627,-0.4453207552433014,0.19364428520202637,0.4453207552433014
1753234925511280600,16.46928076171875,-0.4050036668777466,-0.08796459436416626,0.25473082065582275
1753234925527298000,16.485298095703126,-0.394008070230484,-0.2535090744495392,0.13500121235847473
1753234925543284500,16.501284423828125,-0.3982841372489929,-0.06780604273080826,0.17287486791610718
1753234925559274800,16.517274658203124,-0.40133845806121826,0.07880161702632904,0.3646865487098694
1753234925575302000,16.533302001953125,-0.33169981837272644,0.14049901068210602,0.6823364496231079
1753234925591343900,16.54934375,-0.27061331272125244,0.13561208546161652,0.8741481900215149
1753234925607380500,16.56538037109375,-0.2565633952617645,0.08918632566928864,0.9150761365890503
1753234925623398700,16.581398681640625,-0.26511552929878235,-0.028099801391363144,0.8124507665634155
1753234925639435500,16.597435546875,-0.2431243658065796,-0.2382374405860901,0.617584764957428
1753234925655407600,16.61340771484375,-0.23273965716362,-0.23640485107898712,0.4331034719944
1753234925671394600,16.62939453125,-0.18325957655906677,-0.11911872029304504,0.26511552929878235
1753234925687454200,16.6454541015625,-0.0659734457731247,0.004886921960860491,0.05925392732024193
1753234925703450600,16.66145068359375,0.031154127791523933,-0.015882495790719986,-0.16737708449363708
1753234925719441200,16.677441162109375,-0.009773843921720982,-0.12400564551353455,-0.40744712948799133
1753234925735419600,16.693419677734376,-0.13927727937698364,-0.07880161702632904,-0.43676865100860596
1753234925751456800,16.709456787109374,-0.29138273000717163,-0.01710422709584236,-0.1569923609495163
1753234925767473200,16.72547314453125,-0.37140607833862305,-0.09407325088977814,0.19364428520202637
1753234925783452700,16.74145263671875,-0.4105014503002167,-0.29016098380088806,0.4550946056842804
1753234925799444000,16.75744384765625,-0.4300491213798523,-0.4349360466003418,0.4141666293144226
1753234925815438300,16.773438232421874,-0.43127086758613586,-0.48869219422340393,0.16737708449363708
1753234925831428900,16.789428955078126,-0.44287729263305664,-0.384845107793808,-0.242513507604599
1753234925847445800,16.80544580078125,-0.4862487316131592,-0.1771509200334549,-0.5900958180427551
1753234925863422500,16.82142236328125,-0.5729916095733643,0.0910189226269722,-0.8869763612747192
1753234925879456300,16.837456298828126,-0.6743952035903931,0.31642818450927734,-0.950506329536438
1753234925895432200,16.85343212890625,-0.7654141783714294,0.31031954288482666,-0.7965682744979858
1753234925911488800,16.86948876953125,-0.7641924023628235,0.07513642311096191,-0.5406157374382019
1753234925927543600,16.88554345703125,-0.7257078886032104,-0.10567969083786011,-0.17776179313659668
1753234925943531500,16.901531494140624,-0.7195992469787598,-0.17898350954055786,0.12461651116609573
1753234925959520000,16.91752001953125,-0.6786713004112244,-0.23029619455337524,0.35613444447517395
1753234925975496000,16.933495849609375,-0.6352998614311218,-0.26633724570274353,0.45142942667007446
1753234925991495000,16.949494873046874,-0.6010913848876953,-0.252287358045578,0.3793473243713379
1753234926007516700,16.9655166015625,-0.5650503635406494,-0.17470745742321014,0.18081611394882202
1753234926023498200,16.981498291015626,-0.5467243790626526,-0.21013765037059784,0.0354301854968071
1753234926039488800,16.99748876953125,-0.5607742667198181,-0.40256020426750183,0.03481931984424591
1753234926055520300,17.013520263671875,-0.6059783101081848,-0.5815436840057373,0.14416420459747314
1753234926071567600,17.029567626953124,-0.6963863968849182,-0.7770205736160278,0.2767219543457031
1753234926087590400,17.04559033203125,-0.7373143434524536,-0.8038986921310425,0.384845107793808
1753234926103578000,17.061578125,-0.779464066028595,-0.7409795522689819,0.42210787534713745
1753234926135625700,17.093625732421874,-0.8350527882575989,-0.18020524084568024,0.2974913716316223
1753234926151614700,17.10961474609375,-0.8576548099517822,0.2015855312347412,0.19547687470912933
1753234926167673000,17.125673095703124,-0.8546004891395569,0.4141666293144226,0.07330382615327835
1753234926183652400,17.14165234375,-0.8747590184211731,0.618195652961731,-0.13744467496871948
1753234926199644400,17.15764453125,-0.959669291973114,0.6450737118721008,-0.3836233615875244
1753234926215618800,17.173618896484374,-1.0751228332519531,0.4056145250797272,-0.6969972252845764
1753234926231659000,17.189658935546873,-1.0616837739944458,0.12217304855585098,-0.6908885836601257
1753234926247678000,17.205677978515624,-0.9926560521125793,-0.24678955972194672,-0.32620203495025635
1753234926263659800,17.22165966796875,-0.9004153609275818,-0.7244861721992493,0.2632829248905182
1753234926279648000,17.23764794921875,-0.7360926270484924,-0.8906415104866028,0.6701191663742065
1753234926295671600,17.253671630859376,-0.5839871764183044,-0.8240572214126587,0.8045095205307007
1753234926311663900,17.269663818359376,-0.5406157374382019,-0.45875978469848633,0.5436700582504272
1753234926327682300,17.285682373046875,-0.5491678714752197,0.26939156651496887,-0.06414084881544113
1753234926343663900,17.301663818359376,-0.5845980644226074,0.6927211880683899,-0.616973876953125
1753234926359701800,17.31770166015625,-0.5943718552589417,0.7819074988365173,-0.9676105380058289
1753234926375680500,17.333680419921876,-0.4996877610683441,0.5338962078094482,-1.0231993198394775
1753234926391718700,17.34971875,-0.41599923372268677,0.17348572611808777,-0.7483099102973938
1753234926407776800,17.36577685546875,-0.42088615894317627,-0.06108652427792549,-0.15027284622192383
1753234926423762400,17.381762451171873,-0.4190535545349121,-0.11362093687057495,0.3323107063770294
1753234926439757800,17.3977578125,-0.3732386529445648,-0.024434609338641167,0.608421802520752
1753234926455734800,17.41373486328125,-0.33597588539123535,0.16798794269561768,0.5821545720100403
1753234926471732200,17.429732177734376,-0.28955012559890747,0.40194934606552124,0.36590829491615295
1753234926487752000,17.445751953125,-0.2926044464111328,0.39584067463874817,0.08491026610136032
1753234926503735800,17.46173583984375,-0.28955012559890747,0.2742784917354584,-0.21074850857257843
1753234926519729400,17.4777294921875,-0.27488934993743896,-0.024434609338641167,-0.41111230850219727
1753234926535755500,17.493755615234374,-0.2590068578720093,-0.342695415019989,-0.39767327904701233
1753234926551794000,17.5097939453125,-0.19058994948863983,-0.5149593949317932,-0.1765400618314743
1753234926567815000,17.52581494140625,-0.13255776464939117,-0.3805690407752991,0.16859880089759827
1753234926583793700,17.541793701171876,-0.06169738993048668,-0.09224065393209457,0.5754350423812866
1753234926599865600,17.557865478515627,-0.012217304669320583,0.11972958594560623,0.7605272531509399
1753234926615858400,17.5738583984375,0.018325956538319588,0.13500121235847473,0.7122688889503479
1753234926631883300,17.58988330078125,0.02626720629632473,0.033597588539123535,0.5259549617767334
1753234926647947300,17.605947265625,0.03726277872920036,-0.22968533635139465,0.192422553896904
1753234926663947500,17.621947509765626,0.07452555745840073,-0.2669481039047241,-0.09346238523721695
1753234926679964000,17.6379638671875,0.11667526513338089,-0.1661553531885147,-0.3396410644054413
1753234926695946000,17.653946044921874,0.16798794269561768,0.02687807008624077,-0.6065891981124878
1753234926711992600,17.66999267578125,0.14477506279945374,0.2981022298336029,-0.7568620443344116
1753234926728013300,17.686013427734373,0.027488935738801956,0.6261368989944458,-0.6792821288108826
1753234926743999200,17.701999267578124,0.006719517521560192,0.7476990818977356,-0.33169981837272644
1753234926759996200,17.71799609375,0.06963863968849182,0.4917465150356293,0.18325957655906677
1753234926776025900,17.73402587890625,0.12950342893600464,0.12278391420841217,0.45753806829452515
1753234926792023000,17.75002294921875,0.14905111491680145,-0.28099802136421204,0.37262779474258423
1753234926808048600,17.766048583984375,0.12828169763088226,-0.4599815309047699,0.01710422709584236
1753234926824034600,17.78203466796875,0.05864306539297104,-0.4550946056842804,-0.4404338300228119
1753234926840075300,17.7980751953125,-0.03420845419168472,-0.2174680233001709,-0.9334021210670471
1753234926856056300,17.814056396484375,-0.07757988572120667,-0.003054326167330146,-1.1789699792861938
1753234926872117200,17.8301171875,-0.10873401165008545,0.14294247329235077,-1.1527026891708374
1753234926888181500,17.846181396484376,-0.11667526513338089,0.1313360333442688,-0.8857545852661133
1753234926904172500,17.862172607421876,-0.12034045159816742,-0.08429940044879913,-0.43676865100860596
1753234926920189200,17.878189208984374,-0.01466076634824276,-0.3530801236629486,-0.01710422709584236
1753234926936181000,17.894180908203126,0.11423180252313614,-0.49357911944389343,0.4050036668777466
1753234926952184600,17.9101845703125,0.11423180252313614,-0.3854559659957886,0.6047565937042236
1753234926968208600,17.926208740234376,0.08735372871160507,-0.15027284622192383,0.598647952079773
1753234926984193300,17.942193359375,0.05925392732024193,0.07757988572120667,0.4239404797554016
1753234927000187400,17.9581875,0.07513642311096191,0.07941248267889023,0.22296582162380219
1753234927016216300,17.97421630859375,0.1264491081237793,-0.08796459436416626,0.09468411654233932
1753234927032256500,17.990256591796875,0.13988813757896423,-0.2791654169559479,0.23457226157188416
1753234927048278300,18.0062783203125,0.08491026610136032,-0.47342056035995483,0.5845980644226074
1753234927064257800,18.0222578125,-0.00855211354792118,-0.5326744914054871,0.7941248416900635
1753234927080308000,18.038307861328125,-0.07208210229873657,-0.5748242139816284,0.7715228199958801
1753234927096303000,18.05430322265625,-0.11301007121801376,-0.5400048494338989,0.5858197808265686
1753234927112344600,18.070344482421874,-0.19058994948863983,-0.3543018400669098,0.34086281061172485
1753234927128386600,18.086386474609377,-0.2883284091949463,-0.17287486791610718,0.08002334833145142
1753234927144370200,18.1023701171875,-0.30970868468284607,-0.05864306539297104,0.03298672288656235
1753234927160365300,18.118365234375,-0.28955012559890747,0.03726277872920036,0.1563815027475357
1753234927176341000,18.134341064453125,-0.41172316670417786,0.17776179313659668,0.22296582162380219
1753234927192379400,18.15037939453125,-0.5968153476715088,0.33536502718925476,0.09773843735456467
1753234927208395800,18.166395751953125,-0.7739662528038025,0.2681698501110077,-0.23273965716362
1753234927224379000,18.18237890625,-0.8472700715065002,0.056810468435287476,-0.5595525503158569
1753234927240374500,18.19837451171875,-0.7275404930114746,-0.09773843735456467,-0.475253164768219
1753234927256401700,18.214401611328125,-0.617584764957428,-0.24556782841682434,-0.23029619455337524
1753234927272394200,18.230394287109377,-0.484416127204895,-0.3597996234893799,0.10567969083786011
1753234927288413200,18.2464130859375,-0.3396410644054413,-0.36590829491615295,0.3066543638706207
1753234927304390100,18.26239013671875,-0.23335053026676178,-0.37201693654060364,0.3078760802745819
1753234927320477700,18.278477783203126,-0.1875356286764145,-0.2590068578720093,0.04642575979232788
1753234927336455400,18.294455322265627,-0.18875735998153687,0.025656340643763542,-0.4440990388393402
1753234927352518000,18.310517822265624,-0.18081611394882202,0.23457226157188416,-0.7843509912490845
1753234927368580400,18.326580322265624,-0.15027284622192383,0.26572638750076294,-0.8399397134780884
1753234927384578800,18.342578857421874,-0.11789698898792267,0.11972958594560623,-0.6126978397369385
1753234927400592600,18.358592529296875,-0.05619960278272629,-0.03481931984424591,-0.24495697021484375
1753234927416590300,18.37459033203125,0.04703662544488907,-0.1007927656173706,0.19853121042251587
1753234927432589000,18.390589111328126,0.09529497474431992,0.06169738993048668,0.4996877610683441
1753234927448606700,18.406606689453124,0.07757988572120667,0.33536502718925476,0.6829473376274109
1753234927464587000,18.4225869140625,0.03787364438176155,0.4862487316131592,0.675616979598999
1753234927480577800,18.438577880859373,0.03726277872920036,0.543059229850769,0.504574716091156
1753234927496603100,18.45460302734375,0.08002334833145142,0.40133845806121826,0.3139847218990326
1753234927512640000,18.470639892578124,0.10751228034496307,0.0708603709936142,0.13072516024112701
1753234927528687600,18.4866875,0.1264491081237793,-0.12522737681865692,0.024434609338641167
1753234927544666000,18.502666015625,0.17959438264369965,-0.12034045159816742,-0.006108652334660292
1753234927560705000,18.518705078125,0.19608774781227112,0.12400564551353455,0.15821409225463867
1753234927576684300,18.534684326171874,0.1508837193250656,0.4612032473087311,0.4386012554168701
1753234927592677400,18.550677490234374,0.15393804013729095,0.6524040699005127,0.6963863968849182
1753234927608697900,18.56669775390625,0.2064724564552307,0.5491678714752197,0.7147123217582703
1753234927624679400,18.582679443359375,0.26511552929878235,0.11789698898792267,0.48808133602142334
1753234927656658700,18.61465869140625,0.4862487316131592,-0.19547687470912933,-0.05253441259264946
1753234927672702500,18.630702392578126,0.5522221922874451,-0.11972958594560623,-0.16249015927314758
1753234927688723700,18.6467236328125,0.6114761233329773,-0.0708603709936142,-0.31031954288482666
1753234927704703500,18.662703369140626,0.5827654600143433,-0.0507018156349659,-0.5564982295036316
1753234927720694800,18.67869482421875,0.47342056035995483,0.0959058403968811,-0.7122688889503479
1753234927736727800,18.694727783203124,0.28955012559890747,0.3219259977340698,-0.6499606370925903
1753234927752721200,18.71072119140625,0.17898350954055786,0.32681289315223694,-0.3439171314239502
1753234927768771600,18.726771484375,0.12950342893600464,0.12950342893600464,0.16982053220272064
1753234927784750600,18.74275048828125,0.08918632566928864,-0.09896016865968704,0.44226643443107605
1753234927800789800,18.758789794921874,0.07635815441608429,-0.31093040108680725,0.3634648323059082
1753234927816768000,18.77476806640625,0.0959058403968811,-0.3481931984424591,0.022602014243602753
1753234927832844300,18.79084423828125,0.1111774742603302,-0.24068090319633484,-0.3549126982688904
1753234927848911400,18.806911376953124,0.08674286305904388,0.03848451003432274,-0.6053674817085266
1753234927864939800,18.822939697265625,0.04886921867728233,0.30054569244384766,-0.5870414972305298
1753234927881006800,18.8390068359375,-0.0006108652451075613,0.3066543638706207,-0.4092797040939331
1753234927897001700,18.855001708984375,-0.0006108652451075613,0.07635815441608429,-0.2223549485206604
1753234927913001200,18.871001220703125,0.04886921867728233,-0.19058994948863983,0.024434609338641167
1753234927929021200,18.887021240234375,0.0757472887635231,-0.27000242471694946,0.24068090319633484
1753234927945002800,18.903002685546873,0.04948008432984352,-0.2632829248905182,0.41722095012664795
1753234927960995600,18.91899560546875,0.028099801391363144,-0.13866640627384186,0.5106833577156067
1753234927977019600,18.93501953125,0.02076941914856434,-0.03481931984424591,0.5198463201522827
1753234927993058300,18.951058349609376,0.021380282938480377,0.01038470957428217,0.4105014503002167
1753234928009077000,18.967076904296874,0.015882495790719986,-0.02321287989616394,0.2822197377681732
1753234928025056500,18.983056396484375,-0.014049900695681572,-0.08857546001672745,0.2376265823841095
1753234928041097000,18.999096923828127,-0.07208210229873657,-0.22968533635139465,0.32498031854629517
1753234928057082600,19.01508251953125,-0.13255776464939117,-0.4337143301963806,0.4080579876899719
1753234928073126700,19.031126708984374,-0.17470745742321014,-0.5222898125648499,0.45326200127601624
1753234928089191000,19.04719091796875,-0.23396138846874237,-0.46242499351501465,0.45204028487205505
1753234928105208600,19.06320849609375,-0.26083946228027344,-0.22296582162380219,0.3781255781650543
1753234928121206800,19.079206787109374,-0.2767219543457031,0.025045474991202354,0.26083946228027344
1753234928137184000,19.09518408203125,-0.22846360504627228,0.1966986060142517,0.10018189996480942
1753234928153228800,19.111228759765623,-0.1869247704744339,0.21868975460529327,-0.05009094998240471
1753234928169244700,19.12724462890625,-0.24007004499435425,0.16004669666290283,-0.23151792585849762
1753234928185224200,19.14322412109375,-0.35124751925468445,0.18936823308467865,-0.42210787534713745
1753234928201213400,19.15921337890625,-0.47769662737846375,0.26572638750076294,-0.645684540271759
1753234928217235000,19.17523486328125,-0.5149593949317932,0.23579397797584534,-0.7043276429176331
1753234928233227300,19.191227294921877,-0.4447098970413208,-0.018936822190880775,-0.49296826124191284
1753234928249247200,19.207247314453124,-0.3237585723400116,-0.3139847218990326,-0.18814650177955627
1753234928265225700,19.223225830078125,-0.1918116807937622,-0.4129449129104614,0.1160643994808197
1753234928281260000,19.239260009765626,-0.08002334833145142,-0.3121521472930908,0.30970868468284607
1753234928297234400,19.255234375,-0.0354301854968071,-0.12461651116609573,0.21013765037059784
1753234928313268700,19.271268798828125,-0.04642575979232788,0.10873401165008545,-0.17409659922122955
1753234928329327000,19.2873271484375,-0.07635815441608429,0.2889392673969269,-0.5809328556060791
1753234928345352000,19.30335205078125,-0.11301007121801376,0.40683624148368835,-0.8930850028991699
1753234928361343200,19.31934326171875,-0.10995574295520782,0.375071257352829,-0.9010262489318848
1753234928377336000,19.335336181640624,-0.04581489413976669,0.23151792585849762,-0.6230825781822205
1753234928393347000,19.35134716796875,0.01160643994808197,0.1918116807937622,-0.2125810980796814
1753234928409364000,19.367364013671875,0.018936822190880775,0.2926044464111328,0.25106561183929443
1753234928425357000,19.383357177734375,0.00855211354792118,0.384845107793808,0.6499606370925903
1753234928441348400,19.399348388671875,0.03726277872920036,0.3683517575263977,0.7874053120613098
1753234928457376000,19.4153759765625,0.06658431142568588,0.24373523890972137,0.7226535677909851
1753234928473414400,19.431414306640626,0.10018189996480942,0.0708603709936142,0.5112941861152649
1753234928489404700,19.44740478515625,0.12522737681865692,-0.2791654169559479,0.18997909128665924
1753234928505386800,19.46338671875,0.182648703455925,-0.5662720799446106,0.051312681287527084
1753234928521421000,19.479421142578126,0.19914206862449646,-0.6902777552604675,0.09468411654233932
1753234928537395000,19.49539501953125,0.18020524084568024,-0.5253441333770752,0.22846360504627228
1753234928553433300,19.511433349609376,0.13927727937698364,-0.22540926933288574,0.40256020426750183
1753234928569491000,19.527490966796876,0.06841690838336945,0.09468411654233932,0.5369505286216736
1753234928585497300,19.543497314453123,0.04703662544488907,0.17409659922122955,0.494189977645874
1753234928601504000,19.55950390625,0.11850785464048386,0.1569923609495163,0.3023782968521118
1753234928617477600,19.5754775390625,0.22968533635139465,0.05253441259264946,0.12828169763088226
1753234928633517600,19.591517578125,0.3488040566444397,0,-0.01771509274840355
1753234928649539800,19.607539794921873,0.46853363513946533,-0.003054326167330146,-0.05314527451992035
1753234928665539600,19.62353955078125,0.5907067060470581,-0.06780604273080826,-0.11728613078594208
1753234928681532700,19.63953271484375,0.6401867866516113,-0.16737708449363708,-0.251676470041275
1753234928697554200,19.65555419921875,0.5717698931694031,-0.12400564551353455,-0.40194934606552124
1753234928713566500,19.67156640625,0.4050036668777466,0.17348572611808777,-0.3591887652873993
1753234928729583600,19.68758349609375,0.2938261926174164,0.384845107793808,0.0012217304902151227
