time,seconds_elapsed,z,y,x
1753234909084221000,0.042220947265625,0.033597588539123535,-0.18570303916931152,-0.1514945775270462
1753234909100268800,0.058268798828125,0.033597588539123535,-0.18570303916931152,-0.1514945775270462
1753234909116300800,0.07430078125,0.033597588539123535,-0.18570303916931152,-0.1514945775270462
1753234909132288000,0.0902880859375,0.033597588539123535,-0.18570303916931152,-0.1514945775270462
1753234909148297000,0.106296875,0.033597588539123535,-0.18570303916931152,-0.1514945775270462
1753234909164287500,0.12228759765625,0.033597588539123535,-0.18570303916931152,-0.1514945775270462
1753234909180305400,0.138305419921875,0.033597588539123535,-0.18570303916931152,-0.1514945775270462
1753234909196323000,0.154322998046875,-0.01038470957428217,0.06536258012056351,-0.14477506279945374
1753234909212318200,0.170318115234375,-0.018325956538319588,-0.027488935738801956,-0.08002334833145142
1753234909228329500,0.18632958984375,-0.03176499158143997,-0.1362229436635971,-0.04948008432984352
1753234909244367000,0.2023671875,-0.00427605677396059,-0.2583959996700287,-0.05253441259264946
1753234909260421400,0.21842138671875,0.01038470957428217,-0.24862214922904968,-0.02932153269648552
1753234909276438800,0.234438720703125,0.0012217304902151227,-0.09651670604944229,0.014049900695681572
1753234909292430800,0.250430908203125,-0.022602014243602753,0.09529497474431992,0.04214970022439957
1753234909308487200,0.266487060546875,-0.03848451003432274,0.17043140530586243,0.02932153269648552
1753234909324478000,0.28247802734375,-0.04153883829712868,0.18509216606616974,0.025045474991202354
1753234909340533500,0.298533447265625,-0.028099801391363144,0.13561208546161652,0.02076941914856434
1753234909356593200,0.31459326171875,-0.004886921960860491,0.03298672288656235,-0.02687807008624077
1753234909372585500,0.33058544921875,0.028099801391363144,-0.05192354694008827,-0.08796459436416626
1753234909388595000,0.346594970703125,0.051312681287527084,-0.08979719132184982,-0.11484266817569733
1753234909404584000,0.362583984375,0.02687807008624077,-0.04581489413976669,-0.08307767659425735
1753234909420641800,0.378641845703125,-0.018936822190880775,0.01771509274840355,-0.0024434609804302454
1753234909436658400,0.394658447265625,-0.031154127791523933,0.03176499158143997,0.0708603709936142
1753234909452651300,0.4106513671875,-0.00855211354792118,0.018936822190880775,0.08368854224681854
1753234909468661800,0.426661865234375,0.022602014243602753,0.0006108652451075613,-0.009773843921720982
1753234909484703200,0.442703125,0.013439035043120384,-0.02321287989616394,-0.11667526513338089
1753234909500715500,0.458715576171875,0.010995574295520782,-0.0012217304902151227,-0.1258382350206375
1753234909516734000,0.47473388671875,0.00366519158706069,0.01038470957428217,-0.04581489413976669
1753234909532728300,0.490728271484375,0.009773843921720982,-0.02076941914856434,0.04398229718208313
1753234909548787200,0.506787109375,0.007941247895359993,-0.030543262138962746,0.05803219974040985
1753234909564780800,0.52278076171875,-0.01466076634824276,0.00366519158706069,0.009162978269159794
1753234909580835800,0.5388359375,-0.030543262138962746,0.01466076634824276,-0.05009094998240471
1753234909596894500,0.55489453125,-0.03420845419168472,0.05192354694008827,-0.04581489413976669
1753234909612888300,0.570888427734375,-0.036651913076639175,0.00366519158706069,0.03420845419168472
1753234909628898300,0.586898193359375,-0.02321287989616394,-0.054367005825042725,0.07880161702632904
1753234909644889900,0.602889892578125,-0.0012217304902151227,-0.09224065393209457,0.07330382615327835
1753234909660903400,0.6189033203125,0.006108652334660292,-0.03848451003432274,0.04214970022439957
1753234909676918800,0.634918701171875,0.0006108652451075613,0.04459316283464432,-0.039706241339445114
1753234909692912600,0.65091259765625,-0.007941247895359993,0.05619960278272629,-0.11239920556545258
1753234909708922600,0.666922607421875,-0.006108652334660292,0.08185594528913498,-0.09346238523721695
1753234909724957700,0.682957763671875,-0.015882495790719986,0.03237585723400116,-0.007941247895359993
1753234909741014300,0.69901416015625,-0.013439035043120384,0.012828170321881771,0.08124507963657379
1753234909757034000,0.715033935546875,-0.006719517521560192,0.012828170321881771,0.10018189996480942
1753234909773028600,0.731028564453125,-0.007941247895359993,0.024434609338641167,0.03787364438176155
1753234909789084400,0.74708447265625,0.00366519158706069,0.028099801391363144,-0.030543262138962746
1753234909805073200,0.7630732421875,0.009773843921720982,0.001832595793530345,-0.02871066704392433
1753234909821082000,0.77908203125,0.0006108652451075613,-0.007941247895359993,0.006719517521560192
1753234909837142000,0.79514208984375,-0.003054326167330146,-0.018936822190880775,0.01771509274840355
1753234909853180200,0.81118017578125,0,-0.05497787147760391,-0.02015855349600315
1753234909869192400,0.8271923828125,0.013439035043120384,-0.05864306539297104,-0.07880161702632904
1753234909885184300,0.843184326171875,0.01466076634824276,-0.02871066704392433,-0.12400564551353455
1753234909901244400,0.859244384765625,-0.00366519158706069,0.031154127791523933,-0.09773843735456467
1753234909917264000,0.875263916015625,0,0.05314527451992035,-0.018936822190880775
1753234909933261300,0.89126123046875,0.005497787147760391,0.001832595793530345,0.03726277872920036
1753234909949275100,0.907275146484375,0.012217304669320583,-0.00733038317412138,0.030543262138962746
1753234909965317400,0.9233173828125,0.014049900695681572,-0.030543262138962746,0
1753234909981332200,0.939332275390625,0.013439035043120384,-0.04398229718208313,0.015271631069481373
1753234909997354000,0.95535400390625,-0.004886921960860491,0.005497787147760391,0.07391469180583954
1753234910013353200,0.971353271484375,-0.022602014243602753,0.04153883829712868,0.11239920556545258
1753234910029412600,0.98741259765625,-0.016493361443281174,0.07819075137376785,0.09834930300712585
1753234910045400600,1.003400634765625,0.0012217304902151227,0.03481931984424591,0.03726277872920036
1753234910061452000,1.0194521484375,0.012217304669320583,-0.015882495790719986,-0.014049900695681572
1753234910077509000,1.035509033203125,0.003054326167330146,-0.04764748737215996,-0.016493361443281174
1753234910093502700,1.051502685546875,-0.01466076634824276,-0.02015855349600315,0.005497787147760391
1753234910109513700,1.067513671875,-0.02015855349600315,0.05742133408784866,-0.00427605677396059
1753234910125505000,1.083505126953125,-0.01466076634824276,0.051312681287527084,-0.039706241339445114
1753234910141520100,1.09952001953125,0.01038470957428217,0.016493361443281174,-0.07208210229873657
1753234910157536300,1.115536376953125,0.01771509274840355,-0.019547687843441963,-0.0757472887635231
1753234910173527000,1.131527099609375,0.009162978269159794,-0.0354301854968071,-0.03481931984424591
1753234910189533000,1.147532958984375,-0.006719517521560192,-0.001832595793530345,0.0006108652451075613
1753234910205561600,1.1635615234375,-0.036651913076639175,0.05375614017248154,0.014049900695681572
1753234910221615400,1.179615478515625,-0.039706241339445114,0.05009094998240471,0.004886921960860491
1753234910237631700,1.1956318359375,-0.009162978269159794,0.03237585723400116,-0.009773843921720982
1753234910253621800,1.211621826171875,0.014049900695681572,-0.00427605677396059,-0.019547687843441963
1753234910269678300,1.22767822265625,0.028099801391363144,-0.015271631069481373,-0.013439035043120384
1753234910285666800,1.243666748046875,0.03298672288656235,-0.01466076634824276,-0.0006108652451075613
1753234910301678300,1.25967822265625,0.02015855349600315,0.01771509274840355,0.00366519158706069
1753234910317738200,1.27573828125,-0.015271631069481373,0.04092797264456749,0.0024434609804302454
1753234910333738200,1.29173828125,-0.02687807008624077,0.0555887371301651,0.006108652334660292
1753234910349749200,1.307749267578125,-0.029932396486401558,0.036041051149368286,-0.006719517521560192
1753234910365741000,1.323740966796875,-0.01466076634824276,-0.004886921960860491,-0.02382374368607998
1753234910381804000,1.339803955078125,-0.0024434609804302454,-0.025656340643763542,-0.012828170321881771
1753234910397823500,1.355823486328125,-0.0006108652451075613,-0.02871066704392433,-0.0006108652451075613
1753234910413815300,1.371815185546875,-0.0012217304902151227,-0.02382374368607998,-0.00366519158706069
1753234910429827000,1.3878271484375,-0.009773843921720982,0.006719517521560192,-0.007941247895359993
1753234910445869300,1.403869384765625,-0.01466076634824276,0.018936822190880775,-0.0006108652451075613
1753234910461881000,1.419881103515625,-0.012828170321881771,0.010995574295520782,0.0012217304902151227
1753234910477899800,1.435899658203125,-0.010995574295520782,-0.0012217304902151227,-0.012217304669320583
1753234910493892900,1.451892822265625,0.00427605677396059,0.00427605677396059,-0.025045474991202354
1753234910509948700,1.46794873046875,0.01466076634824276,-0.001832595793530345,-0.019547687843441963
1753234910525939700,1.483939697265625,-0.007941247895359993,0.001832595793530345,0
1753234910541995300,1.499995361328125,-0.02382374368607998,0.027488935738801956,0.01710422709584236
1753234910558056200,1.51605615234375,-0.015882495790719986,0.02321287989616394,0.01710422709584236
1753234910574052900,1.532052978515625,0.005497787147760391,-0.003054326167330146,0.013439035043120384
1753234910590065000,1.54806494140625,0.02687807008624077,-0.02076941914856434,0.014049900695681572
1753234910606057700,1.5640576171875,0.02626720629632473,-0.014049900695681572,0.018936822190880775
1753234910622074000,1.58007421875,0.0012217304902151227,0.00427605677396059,0.013439035043120384
1753234910638092800,1.5960927734375,-0.012217304669320583,0.036651913076639175,0.015882495790719986
1753234910654087700,1.612087646484375,-0.01160643994808197,0.018936822190880775,0.039095375686883926
1753234910670102500,1.6281025390625,0,-0.009773843921720982,0.06780604273080826
1753234910686143000,1.64414306640625,0.01771509274840355,-0.02015855349600315,0.0708603709936142
1753234910702203100,1.660203125,0.015882495790719986,0.005497787147760391,0.06108652427792549
1753234910718255900,1.676255859375,0.009773843921720982,0.03237585723400116,0.03726277872920036
1753234910734252500,1.69225244140625,-0.00855211354792118,0.06719517707824707,0.018325956538319588
1753234910750308000,1.70830810546875,-0.025656340643763542,0.048258353024721146,0.00427605677396059
1753234910766299400,1.72429931640625,-0.01710422709584236,0.02626720629632473,-0.004886921960860491
1753234910782311000,1.740310791015625,0.006719517521560192,-0.021991148591041565,-0.02687807008624077
1753234910798372000,1.7563720703125,0.018936822190880775,-0.04459316283464432,-0.03726277872920036
1753234910814397400,1.7723974609375,0.019547687843441963,-0.02015855349600315,-0.027488935738801956
1753234910830415600,1.78841552734375,-0.003054326167330146,0.027488935738801956,0.00733038317412138
1753234910846412000,1.804412109375,-0.016493361443281174,0.04703662544488907,0.04581489413976669
1753234910862475000,1.82047509765625,-0.010995574295520782,0.03420845419168472,0.04948008432984352
1753234910878496500,1.83649658203125,0.00366519158706069,0.003054326167330146,0.007941247895359993
1753234910894492000,1.852491943359375,0.028099801391363144,-0.03237585723400116,-0.025656340643763542
1753234910910550000,1.868550048828125,0.02626720629632473,-0.019547687843441963,-0.01771509274840355
1753234910926592300,1.88459228515625,0.009773843921720982,0.04214970022439957,0.02321287989616394
1753234910942609400,1.900609375,-0.0024434609804302454,0.06658431142568588,0.05925392732024193
1753234910958628000,1.916628173828125,-0.012217304669320583,0.06780604273080826,0.06902777403593063
1753234910974620200,1.9326201171875,-0.00733038317412138,0.04398229718208313,0.04703662544488907
1753234910990726100,1.94872607421875,0.006108652334660292,0.012217304669320583,0.00366519158706069
1753234911006717700,1.9647177734375,0.012828170321881771,-0.024434609338641167,-0.06169738993048668
1753234911022770700,1.980770751953125,0.01160643994808197,-0.019547687843441963,-0.07635815441608429
1753234911038833000,1.9968330078125,-0.0012217304902151227,-0.02871066704392433,-0.04764748737215996
1753234911054829000,2.0128291015625,0.0006108652451075613,-0.012828170321881771,0.00733038317412138
1753234911070843400,2.028843505859375,-0.006108652334660292,-0.001832595793530345,0.054367005825042725
1753234911086837800,2.044837646484375,-0.006108652334660292,0.001832595793530345,0.03176499158143997
1753234911102859500,2.060859619140625,-0.0012217304902151227,0.007941247895359993,-0.02626720629632473
1753234911118879000,2.07687890625,0.007941247895359993,0.006719517521560192,-0.059864792972803116
1753234911134875000,2.092875,0.009162978269159794,0.01466076634824276,-0.04948008432984352
1753234911150887400,2.108887451171875,0.004886921960860491,-0.0024434609804302454,0.013439035043120384
1753234911166927600,2.124927734375,0.005497787147760391,-0.028099801391363144,0.05253441259264946
1753234911182983700,2.140983642578125,0.00366519158706069,-0.02871066704392433,0.030543262138962746
1753234911199041300,2.157041259765625,-0.00733038317412138,-0.00366519158706069,-0.021991148591041565
1753234911215036700,2.17303662109375,-0.01710422709584236,0.02932153269648552,-0.04092797264456749
1753234911231095600,2.189095458984375,-0.019547687843441963,0.019547687843441963,-0.013439035043120384
1753234911247088600,2.205088623046875,-0.012217304669320583,-0.009773843921720982,0.03420845419168472
1753234911263100200,2.22110009765625,-0.004886921960860491,-0.02015855349600315,0.05619960278272629
1753234911279158500,2.237158447265625,-0.004886921960860491,-0.025045474991202354,0.02932153269648552
1753234911295178500,2.253178466796875,-0.003054326167330146,0.00427605677396059,-0.02687807008624077
1753234911311189200,2.269189208984375,0.0024434609804302454,0.039095375686883926,-0.05619960278272629
1753234911327178800,2.2851787109375,-0.005497787147760391,0.03237585723400116,-0.02321287989616394
1753234911343239000,2.301239013671875,-0.005497787147760391,-0.00366519158706069,0.04581489413976669
1753234911359257300,2.31725732421875,-0.006719517521560192,-0.031154127791523933,0.1014036312699318
1753234911375250000,2.33325,-0.005497787147760391,-0.01771509274840355,0.09529497474431992
1753234911391263200,2.34926318359375,-0.013439035043120384,0.00366519158706069,0.01771509274840355
1753234911407303700,2.3653037109375,-0.005497787147760391,0.018325956538319588,-0.05253441259264946
1753234911423320800,2.38132080078125,-0.00366519158706069,0.05314527451992035,-0.08124507963657379
1753234911439345000,2.397344970703125,0.0024434609804302454,0.039706241339445114,-0.054367005825042725
1753234911455342300,2.41334228515625,0.01771509274840355,0.00733038317412138,0.005497787147760391
1753234911471402800,2.42940283203125,0.01466076634824276,-0.001832595793530345,0.0403171069920063
1753234911487394800,2.445394775390625,0.009773843921720982,0.02015855349600315,0.02687807008624077
1753234911503462000,2.4614619140625,0.004886921960860491,0.015271631069481373,-0.0006108652451075613
1753234911519528000,2.47752783203125,0,-0.00366519158706069,-0.018325956538319588
1753234911535526400,2.4935263671875,0,0.00427605677396059,0.014049900695681572
1753234911551540700,2.509540771484375,0.005497787147760391,0.009162978269159794,0.059864792972803116
1753234911567534800,2.525534912109375,0.018325956538319588,-0.0012217304902151227,0.06902777403593063
1753234911583552300,2.54155224609375,0.02687807008624077,-0.02015855349600315,0.02871066704392433
1753234911599521000,2.55752099609375,0.019547687843441963,-0.003054326167330146,-0.018325956538319588
1753234911615516000,2.573515869140625,0.00733038317412138,0.030543262138962746,-0.027488935738801956
1753234911631527200,2.589527099609375,-0.001832595793530345,0.04153883829712868,-0.021380282938480377
1753234911647567600,2.605567626953125,0.001832595793530345,0.02687807008624077,-0.018325956538319588
1753234911663626800,2.621626708984375,0.001832595793530345,0.021380282938480377,-0.013439035043120384
1753234911679621600,2.63762158203125,-0.0006108652451075613,-0.006719517521560192,-0.010995574295520782
1753234911695618000,2.6536181640625,0.00733038317412138,-0.02687807008624077,-0.00855211354792118
1753234911711677200,2.66967724609375,-0.00427605677396059,-0.014049900695681572,0
1753234911727671800,2.685671875,-0.00366519158706069,-0.0024434609804302454,0.01038470957428217
1753234911743687000,2.70168701171875,0.006719517521560192,0,0.00366519158706069
1753234911759751700,2.717751708984375,0.01466076634824276,0.009162978269159794,-0.00427605677396059
1753234911775780600,2.733780517578125,0.012828170321881771,0.01466076634824276,-0.003054326167330146
1753234911791794700,2.749794677734375,0.007941247895359993,0.007941247895359993,0.006108652334660292
1753234911807787000,2.765787109375,0.006719517521560192,0.009773843921720982,0.007941247895359993
1753234911823848400,2.781848388671875,0.003054326167330146,0.0012217304902151227,0.021991148591041565
1753234911839868400,2.797868408203125,0.00733038317412138,-0.015882495790719986,0.024434609338641167
1753234911855866400,2.813866455078125,0.02015855349600315,-0.015882495790719986,-0.012217304669320583
1753234911871882200,2.82988232421875,0.02687807008624077,-0.0006108652451075613,-0.051312681287527084
1753234911887925000,2.845925048828125,0.024434609338641167,-0.004886921960860491,-0.05864306539297104
1753234911903943400,2.861943359375,0.02015855349600315,-0.025656340643763542,-0.039706241339445114
1753234911919968000,2.877968017578125,0.010995574295520782,-0.018325956538319588,-0.00855211354792118
1753234911935971800,2.893971923828125,-0.0024434609804302454,-0.014049900695681572,0.014049900695681572
1753234911952035000,2.91003515625,0.0012217304902151227,-0.00733038317412138,0.005497787147760391
1753234911968032300,2.9260322265625,0.006108652334660292,0.015271631069481373,-0.004886921960860491
1753234911984095700,2.942095703125,0.00855211354792118,0.01710422709584236,-0.030543262138962746
1753234912000159200,2.9581591796875,0.018325956538319588,-0.0006108652451075613,-0.042760565876960754
1753234912016157000,2.974156982421875,0.021380282938480377,-0.013439035043120384,-0.02015855349600315
1753234912032168000,2.99016796875,0.009773843921720982,-0.021380282938480377,0.00855211354792118
1753234912048162800,3.006162841796875,-0.0006108652451075613,-0.025656340643763542,0.014049900695681572
1753234912064181200,3.02218115234375,0.00733038317412138,0.02687807008624077,0.0006108652451075613
1753234912080203300,3.038203369140625,-0.001832595793530345,0.04642575979232788,-0.02076941914856434
1753234912096199400,3.054199462890625,-0.00427605677396059,0.03298672288656235,-0.042760565876960754
1753234912112211000,3.0702109375,0.0006108652451075613,-0.00733038317412138,-0.04764748737215996
1753234912128251100,3.086251220703125,0.004886921960860491,-0.04092797264456749,-0.03298672288656235
1753234912144309800,3.102309814453125,0.009773843921720982,-0.04459316283464432,-0.012217304669320583
1753234912160355800,3.11835595703125,0.001832595793530345,-0.00427605677396059,0.003054326167330146
1753234912176349700,3.134349609375,-0.006108652334660292,0.0403171069920063,0.00366519158706069
1753234912192407600,3.150407470703125,-0.009773843921720982,0.022602014243602753,-0.005497787147760391
1753234912208400000,3.16639990234375,-0.00366519158706069,-0.01710422709584236,-0.02015855349600315
1753234912224423200,3.182423095703125,-0.007941247895359993,-0.030543262138962746,-0.03237585723400116
1753234912240484000,3.198484130859375,-0.016493361443281174,-0.018936822190880775,-0.04153883829712868
1753234912256507000,3.2145068359375,-0.00855211354792118,0.009773843921720982,-0.0354301854968071
1753234912272518400,3.230518310546875,0.007941247895359993,0.009162978269159794,-0.02687807008624077
1753234912288507400,3.24650732421875,0.005497787147760391,0.00427605677396059,-0.003054326167330146
1753234912304567600,3.262567626953125,-0.00855211354792118,-0.001832595793530345,0.02015855349600315
1753234912320588500,3.278588623046875,-0.01710422709584236,0.02687807008624077,0.021380282938480377
1753234912336587300,3.294587158203125,-0.02382374368607998,0.029932396486401558,-0.00427605677396059
1753234912352646000,3.31064599609375,-0.021991148591041565,0.0006108652451075613,-0.06475171446800232
1753234912368689000,3.32668896484375,-0.007941247895359993,-0.021991148591041565,-0.09529497474431992
1753234912384703000,3.342702880859375,-0.00427605677396059,-0.0354301854968071,-0.07024950534105301
1753234912400721000,3.358720947265625,-0.00366519158706069,-0.03420845419168472,-0.015882495790719986
1753234912416719000,3.374718994140625,-0.00733038317412138,0.0012217304902151227,0.01710422709584236
1753234912432778200,3.3907783203125,-0.007941247895359993,0.02076941914856434,0.001832595793530345
1753234912448768800,3.406768798828125,-0.005497787147760391,0.016493361443281174,-0.015882495790719986
1753234912464838400,3.42283837890625,-0.0024434609804302454,-0.00733038317412138,-0.02687807008624077
1753234912480871000,3.438870849609375,0.009162978269159794,-0.03176499158143997,-0.025656340643763542
1753234912496863000,3.454863037109375,0.013439035043120384,-0.02932153269648552,-0.006108652334660292
1753234912512873700,3.470873779296875,0.005497787147760391,0.0006108652451075613,-0.001832595793530345
1753234912528864300,3.4868642578125,-0.0006108652451075613,0.025656340643763542,-0.014049900695681572
1753234912544927000,3.502927001953125,-0.003054326167330146,0.01466076634824276,-0.033597588539123535
1753234912560944600,3.518944580078125,0.0006108652451075613,0.001832595793530345,-0.05009094998240471
1753234912576941300,3.53494140625,-0.0024434609804302454,-0.029932396486401558,-0.06230825558304787
1753234912592952600,3.55095263671875,0.00733038317412138,-0.027488935738801956,-0.0555887371301651
1753234912608992500,3.566992431640625,0.0024434609804302454,0.014049900695681572,-0.018325956538319588
1753234912625048800,3.583048828125,-0.006719517521560192,0.04703662544488907,0.015271631069481373
1753234912641105000,3.59910498046875,-0.00733038317412138,0.03848451003432274,0.015882495790719986
1753234912657097000,3.615096923828125,0.0024434609804302454,0.00427605677396059,-0.009162978269159794
1753234912673153000,3.631153076171875,0.00427605677396059,-0.02932153269648552,-0.048258353024721146
1753234912689140500,3.647140380859375,0.01160643994808197,-0.031154127791523933,-0.06414084881544113
1753234912705168100,3.663168212890625,0.013439035043120384,-0.0012217304902151227,-0.06230825558304787
1753234912721228500,3.679228515625,0.015271631069481373,0.016493361443281174,-0.045204028487205505
1753234912737245400,3.695245361328125,0.018936822190880775,0.02076941914856434,-0.02626720629632473
1753234912753257700,3.7112578125,0.02015855349600315,0.01160643994808197,-0.010995574295520782
1753234912769251300,3.727251220703125,0.01466076634824276,-0.01038470957428217,-0.00427605677396059
1753234912785313500,3.7433134765625,0.015271631069481373,-0.03481931984424591,-0.001832595793530345
1753234912801332700,3.759332763671875,0.01160643994808197,-0.025045474991202354,-0.009162978269159794
1753234912817327400,3.775327392578125,-0.004886921960860491,0.009162978269159794,-0.010995574295520782
1753234912833340700,3.791340576171875,-0.0012217304902151227,0.02871066704392433,-0.03848451003432274
1753234912849376000,3.8073759765625,-0.00427605677396059,0.021991148591041565,-0.08246681094169617
1753234912865386000,3.823385986328125,-0.005497787147760391,0.018936822190880775,-0.09712757170200348
1753234912881408000,3.839407958984375,0.003054326167330146,-0.00733038317412138,-0.07819075137376785
1753234912897401900,3.85540185546875,0.010995574295520782,-0.004886921960860491,-0.03787364438176155
1753234912913458000,3.8714580078125,0.00733038317412138,0.012217304669320583,-0.00733038317412138
1753234912929450000,3.887449951171875,-0.0024434609804302454,0.02382374368607998,0.019547687843441963
1753234912945532400,3.903532470703125,-0.01160643994808197,0.006108652334660292,0.01771509274840355
1753234912961591800,3.919591796875,-0.00855211354792118,-0.02321287989616394,-0.025045474991202354
1753234912977583900,3.935583984375,-0.00733038317412138,-0.03298672288656235,-0.06230825558304787
1753234912993593000,3.951593017578125,-0.00366519158706069,-0.01710422709584236,-0.06291911751031876
1753234913009582000,3.96758203125,-0.0006108652451075613,0.0012217304902151227,-0.02932153269648552
1753234913025597000,3.983596923828125,-0.01160643994808197,0.00427605677396059,-0.003054326167330146
1753234913041614300,3.9996142578125,-0.019547687843441963,0.022602014243602753,-0.01160643994808197
1753234913057606400,4.0156064453125,-0.03726277872920036,0.02382374368607998,-0.042760565876960754
1753234913073618700,4.03161865234375,-0.05619960278272629,0.021991148591041565,-0.07391469180583954
1753234913089614300,4.0476142578125,-0.06658431142568588,0.02932153269648552,-0.06658431142568588
1753234913105672000,4.063671875,-0.08002334833145142,0.01466076634824276,-0.0403171069920063
1753234913121710800,4.0797109375,-0.08918632566928864,0.01038470957428217,-0.03237585723400116
1753234913137706500,4.09570654296875,-0.07941248267889023,-0.013439035043120384,-0.04642575979232788
1753234913153764400,4.111764404296875,-0.08246681094169617,-0.04153883829712868,-0.08185594528913498
1753234913169754600,4.127754638671875,-0.08674286305904388,-0.05619960278272629,-0.10201449692249298
1753234913185789700,4.143789794921875,-0.10201449692249298,-0.04703662544488907,-0.08307767659425735
1753234913201848000,4.15984814453125,-0.1270599663257599,-0.015271631069481373,-0.04948008432984352
1753234913217888300,4.17588818359375,-0.14294247329235077,0.04092797264456749,-0.016493361443281174
1753234913233901000,4.191901123046875,-0.16065755486488342,0.12034045159816742,-0.010995574295520782
1753234913249890300,4.207890380859375,-0.1667662113904953,0.12400564551353455,-0.02932153269648552
1753234913265948400,4.223948486328125,-0.15760323405265808,0.03176499158143997,-0.04214970022439957
1753234913281962500,4.23996240234375,-0.15332718193531036,-0.007941247895359993,-0.02321287989616394
1753234913297956000,4.2559560546875,-0.18631389737129211,-0.015271631069481373,0
1753234913314013000,4.272012939453125,-0.21868975460529327,0.003054326167330146,0.001832595793530345
1753234913330048800,4.288048828125,-0.21868975460529327,0.010995574295520782,-0.0403171069920063
1753234913346057200,4.30405712890625,-0.19792033731937408,0.0006108652451075613,-0.1319468915462494
1753234913362070000,4.320070068359375,-0.16249015927314758,-0.016493361443281174,-0.25595253705978394
1753234913378058200,4.336058349609375,-0.14538592100143433,0.019547687843441963,-0.3182607889175415
1753234913394112500,4.352112548828125,-0.1368338167667389,0.10323622822761536,-0.3139847218990326
1753234913410101500,4.3681015625,-0.12278391420841217,0.13439035415649414,-0.25961771607398987
1753234913426190800,4.38419091796875,-0.08735372871160507,0.08368854224681854,-0.1661553531885147
1753234913442248700,4.400248779296875,-0.07819075137376785,-0.0006108652451075613,-0.08979719132184982
1753234913458240800,4.41624072265625,-0.10567969083786011,-0.05192354694008827,-0.031154127791523933
1753234913474252800,4.432252685546875,-0.11911872029304504,-0.01160643994808197,-0.01771509274840355
1753234913490246400,4.448246337890625,-0.10812314599752426,0.02015855349600315,-0.042760565876960754
1753234913506264300,4.464264404296875,-0.0806342139840126,0.04764748737215996,-0.07941248267889023
1753234913522281700,4.48028173828125,-0.0659734457731247,0.05314527451992035,-0.10506882518529892
1753234913538275800,4.49627587890625,-0.05803219974040985,0.0507018156349659,-0.11545353382825851
1753234913554288400,4.512288330078125,-0.042760565876960754,0.036041051149368286,-0.10506882518529892
1753234913570328800,4.528328857421875,-0.030543262138962746,0.001832595793530345,-0.08979719132184982
1753234913586387700,4.5443876953125,0.006719517521560192,0.07147123664617538,-0.0757472887635231
1753234913602426400,4.56042626953125,0.036041051149368286,0.01160643994808197,-0.01160643994808197
1753234913618419200,4.576419189453125,0.03237585723400116,-0.07452555745840073,0.02932153269648552
1753234913634523600,4.592523681640625,0.05619960278272629,-0.1820378452539444,0.06902777403593063
1753234913650515500,4.608515380859375,0.0910189226269722,-0.31031954288482666,0.09468411654233932
1753234913666541000,4.624541015625,0.16249015927314758,-0.33658674359321594,0.1258382350206375
1753234913682600700,4.6406005859375,0.2376265823841095,-0.3738495409488678,0.19120082259178162
1753234913698632000,4.6566318359375,0.2968805134296417,-0.1875356286764145,0.2724458873271942
1753234913714623700,4.672623779296875,0.3292563557624817,0.10567969083786011,0.3683517575263977
1753234913730602500,4.6886025390625,0.3494149148464203,0.27061331272125244,0.4440990388393402
1753234913746641400,4.704641357421875,0.3341432809829712,0.34758231043815613,0.43676865100860596
1753234913762658800,4.720658935546875,0.2883284091949463,0.34513887763023376,0.33108896017074585
1753234913778652000,4.73665185546875,0.22113321721553802,0.17409659922122955,0.17531833052635193
1753234913794647600,4.7526474609375,0.2168571650981903,0.00733038317412138,0.07941248267889023
1753234913810645200,4.768645263671875,0.2431243658065796,-0.09224065393209457,0.019547687843441963
1753234913826637300,4.78463720703125,0.28099802136421204,-0.02321287989616394,0.014049900695681572
1753234913842657500,4.800657470703125,0.3341432809829712,0.03420845419168472,0.08429940044879913
1753234913858636500,4.816636474609375,0.41111230850219727,0.09651670604944229,0.2724458873271942
1753234913874694700,4.832694580078125,0.44654250144958496,0.12889257073402405,0.4086688458919525
1753234913890671400,4.84867138671875,0.46853363513946533,0.11728613078594208,0.4245513379573822
1753234913906754000,4.864754150390625,0.4386012554168701,0.1319468915462494,0.3543018400669098
1753234913922816000,4.88081591796875,0.37262779474258423,0.027488935738801956,0.19914206862449646
1753234913938803200,4.89680322265625,0.34697145223617554,-0.13072516024112701,-0.004886921960860491
1753234913954811100,4.91281103515625,0.41172316670417786,-0.04581489413976669,-0.31093040108680725
1753234913970804200,4.92880419921875,0.4147774875164032,-0.05009094998240471,-0.44165557622909546
1753234913986820600,4.944820556640625,0.35674530267715454,-0.06108652427792549,-0.3591887652873993
1753234914002841300,4.96084130859375,0.25045475363731384,0.013439035043120384,-0.09224065393209457
1753234914018835500,4.97683544921875,0.12400564551353455,0.0012217304902151227,0.1508837193250656
1753234914034850000,4.99285009765625,0.028099801391363144,-0.009773843921720982,0.2877175211906433
1753234914050872000,5.0088720703125,0.021380282938480377,-0.02871066704392433,0.2376265823841095
1753234914066909700,5.02490966796875,0.01771509274840355,-0.05375614017248154,0.06352998316287994
1753234914082934300,5.040934326171875,-0.01038470957428217,0.02932153269648552,-0.03726277872920036
1753234914098917600,5.056917724609375,-0.03176499158143997,0.11178833991289139,0.051312681287527084
1753234914114960000,5.0729599609375,-0.036041051149368286,0.09712757170200348,0.2541199326515198
1753234914130939000,5.08893896484375,0.01710422709584236,0.09346238523721695,0.44165557622909546
1753234914146982100,5.104982177734375,0.08735372871160507,0.04092797264456749,0.5216789245605469
1753234914163038700,5.121038818359375,0.12828169763088226,-0.08491026610136032,0.4599815309047699
1753234914179057200,5.13705712890625,0.15577064454555511,-0.2877175211906433,0.3017674386501312
1753234914195064300,5.153064208984375,0.10690141469240189,-0.4856378734111786,0.16493362188339233
1753234914211055400,5.169055419921875,0.059864792972803116,-0.45142942667007446,0.16493362188339233
1753234914227095000,5.185094970703125,0.00366519158706069,-0.2070833146572113,0.3481931984424591
1753234914243073800,5.20107373046875,-0.15332718193531036,0.08307767659425735,0.675006091594696
1753234914259051500,5.217051513671875,-0.3188716471195221,0.04214970022439957,0.9254608750343323
1753234914275043000,5.23304296875,-0.43615779280662537,-0.182648703455925,0.9914342761039734
1753234914291067100,5.249067138671875,-0.4453207552433014,-0.43676865100860596,0.7922922372817993
1753234914307076600,5.26507666015625,-0.44226643443107605,-0.45265114307403564,0.5241223573684692
1753234914323094500,5.281094482421875,-0.5186246037483215,-0.3634648323059082,0.1875356286764145
1753234914339085800,5.2970859375,-0.618195652961731,-0.192422553896904,-0.07330382615327835
1753234914355140600,5.313140625,-0.7061602473258972,-0.04764748737215996,-0.3127630054950714
1753234914371131400,5.32913134765625,-0.6963863968849182,0.08368854224681854,-0.4593706727027893
1753234914387232000,5.34523193359375,-0.6499606370925903,0.16554448008537292,-0.48197266459465027
1753234914403296800,5.361296875,-0.6230825781822205,0.1264491081237793,-0.36713001132011414
1753234914419286800,5.377286865234375,-0.5791002511978149,0.13377949595451355,-0.2321287989616394
1753234914435297500,5.393297607421875,-0.47280970215797424,0.19058994948863983,-0.12278391420841217
1753234914451278800,5.40927880859375,-0.39645153284072876,0.21441370248794556,-0.1160643994808197
1753234914467275800,5.42527587890625,-0.30970868468284607,0.2840523421764374,-0.23396138846874237
1753234914483292000,5.4412919921875,-0.182648703455925,0.3378084897994995,-0.4856378734111786
1753234914499272200,5.457272216796875,-0.10873401165008545,0.23029619455337524,-0.8112290501594543
1753234914515261700,5.47326171875,-0.07208210229873657,0.033597588539123535,-1.0030407905578613
1753234914531298600,5.489298583984375,-0.029932396486401558,-0.19608774781227112,-1.0488556623458862
1753234914547340800,5.5053408203125,-0.013439035043120384,-0.2626720666885376,-0.9327912330627441
1753234914563358700,5.521358642578125,-0.018936822190880775,-0.14538592100143433,-0.7464773058891296
1753234914579349500,5.537349609375,-0.03787364438176155,0.08185594528913498,-0.49296826124191284
1753234914595399700,5.553399658203125,-0.0708603709936142,0.18570303916931152,-0.2736676335334778
1753234914611384800,5.569384765625,-0.10384709388017654,0.21563543379306793,-0.1270599663257599
1753234914627375900,5.5853759765625,-0.0910189226269722,0.2272418737411499,-0.08796459436416626
1753234914643431200,5.60143115234375,-0.06658431142568588,0.20952677726745605,-0.045204028487205505
1753234914659428400,5.617428466796875,-0.09040805697441101,0.15515977144241333,0.10873401165008545
1753234914675441000,5.63344091796875,-0.08307767659425735,0.018325956538319588,0.3182607889175415
1753234914691430700,5.6494306640625,-0.009162978269159794,-0.14416420459747314,0.38667771220207214
1753234914707490000,5.665489990234375,0.07147123664617538,-0.1771509200334549,0.3536909818649292
1753234914723508500,5.681508544921875,0.13500121235847473,0.02076941914856434,0.31581732630729675
1753234914739529500,5.697529541015625,0.152105450630188,0.24556782841682434,0.37079519033432007
1753234914755541500,5.71354150390625,0.17043140530586243,0.35246923565864563,0.47769662737846375
1753234914771563500,5.7295634765625,0.20586158335208893,0.37140607833862305,0.504574716091156
1753234914787554000,5.745553955078125,0.2669481039047241,0.19853121042251587,0.3701843321323395
1753234914803576600,5.76157666015625,0.36224308609962463,0.006719517521560192,0.17409659922122955
1753234914819555800,5.777555908203125,0.4502076804637909,-0.0861319974064827,0.07757988572120667
1753234914835594000,5.793593994140625,0.5009095072746277,0.00733038317412138,0.1618792861700058
1753234914851568000,5.809568115234375,0.5216789245605469,0.1313360333442688,0.28527405858039856
1753234914867602000,5.825601806640625,0.5125159621238708,0.0659734457731247,0.3243694305419922
1753234914883661300,5.841661376953125,0.4056145250797272,0.02321287989616394,0.21319197118282318
1753234914899640000,5.85764013671875,0.24190263450145721,0.16065755486488342,-0.005497787147760391
1753234914915642000,5.87364208984375,0.15393804013729095,0.34147366881370544,-0.07391469180583954
1753234914931626500,5.88962646484375,0.10567969083786011,0.3836233615875244,0.019547687843441963
1753234914947631900,5.9056318359375,0.11850785464048386,0.2974913716316223,0.08491026610136032
1753234914963647000,5.92164697265625,0.1765400618314743,0.0910189226269722,0.00366519158706069
1753234914979627300,5.937627197265625,0.23518311977386475,-0.12828169763088226,-0.23396138846874237
1753234914995616500,5.953616455078125,0.2889392673969269,-0.3494149148464203,-0.5381723046302795
1753234915011637200,5.96963720703125,0.2981022298336029,-0.2828305959701538,-0.6908885836601257
1753234915027690800,5.985690673828125,0.1966986060142517,-0.021380282938480377,-0.5632177591323853
1753234915043709200,6.001709228515625,0.04092797264456749,0.15393804013729095,-0.25595253705978394
1753234915059701200,6.017701171875,0.012828170321881771,0.18448130786418915,-0.03176499158143997
1753234915075735800,6.03373583984375,0.10384709388017654,0.05314527451992035,0.13011430203914642
1753234915091708400,6.04970849609375,0.12767083942890167,-0.10384709388017654,0.16249015927314758
1753234915107695900,6.06569580078125,0.15515977144241333,-0.14294247329235077,0.13500121235847473
1753234915123755300,6.08175537109375,0.1716531366109848,-0.1765400618314743,0.1319468915462494
1753234915139736000,6.097736083984375,0.11728613078594208,-0.15882496535778046,0.15943582355976105
1753234915155727000,6.11372705078125,0.056810468435287476,-0.05803219974040985,0.1569923609495163
1753234915171699000,6.129698974609375,0.051312681287527084,-0.09834930300712585,0.10934487730264664
1753234915187736300,6.145736328125,0.04214970022439957,-0.19303341209888458,0.06291911751031876
1753234915203754000,6.16175390625,-0.004886921960860491,-0.24617868661880493,0.09712757170200348
1753234915219740400,6.177740478515625,-0.11545353382825851,-0.39156460762023926,0.16859880089759827
1753234915235765200,6.19376513671875,-0.20952677726745605,-0.5161811113357544,0.17531833052635193
1753234915251805700,6.2098056640625,-0.30482175946235657,-0.48869219422340393,0.12095131725072861
1753234915267797800,6.2257978515625,-0.3891211748123169,-0.2736676335334778,0.05803219974040985
1753234915283817700,6.241817626953125,-0.3995058834552765,-0.02626720629632473,0.042760565876960754
1753234915299794700,6.257794677734375,-0.3219259977340698,0.09773843735456467,0.07819075137376785
1753234915315828000,6.273827880859375,-0.2675589919090271,0.1459967941045761,0.10201449692249298
1753234915331804000,6.289803955078125,-0.2877175211906433,0.3139847218990326,0.04337143152952194
1753234915347839500,6.305839599609375,-0.39767327904701233,0.5607742667198181,-0.06475171446800232
1753234915363898400,6.3218984375,-0.5473352670669556,0.7257078886032104,-0.21380282938480377
1753234915379880000,6.3378798828125,-0.6096435189247131,0.6206390857696533,-0.32009339332580566
1753234915395892000,6.35389208984375,-0.5558874011039734,0.19303341209888458,-0.36713001132011414
1753234915411880400,6.36988037109375,-0.40683624148368835,-0.1612684279680252,-0.3695734739303589
1753234915427898600,6.385898681640625,-0.23518311977386475,-0.3530801236629486,-0.36102136969566345
1753234915443917800,6.401917724609375,-0.11056660860776901,-0.2877175211906433,-0.36529740691185
1753234915459909400,6.417909423828125,-0.04581489413976669,-0.07452555745840073,-0.3732386529445648
1753234915475917800,6.433917724609375,-0.010995574295520782,0.1765400618314743,-0.3732386529445648
1753234915491956000,6.4499560546875,-0.033597588539123535,0.2590068578720093,-0.35124751925468445
1753234915508014800,6.466014892578125,-0.036651913076639175,0.14416420459747314,-0.2773328125476837
1753234915524039000,6.482038818359375,-0.00855211354792118,-0.01038470957428217,-0.17409659922122955
1753234915540037400,6.498037353515625,-0.0012217304902151227,-0.08429940044879913,-0.02687807008624077
1753234915556076300,6.514076171875,-0.018936822190880775,0.003054326167330146,0.08918632566928864
1753234915572050000,6.5300498046875,-0.018325956538319588,0.18570303916931152,0.1814269721508026
1753234915588042200,6.546042236328125,-0.02382374368607998,0.34025195240974426,0.24556782841682434
1753234915604102000,6.562101806640625,-0.03176499158143997,0.294437050819397,0.2376265823841095
1753234915620128300,6.578128173828125,-0.025656340643763542,0.14905111491680145,0.16004669666290283
1753234915636121000,6.59412109375,-0.031154127791523933,0.05925392732024193,0.08979719132184982
1753234915652098600,6.6100986328125,-0.012217304669320583,-0.13927727937698364,0.07513642311096191
1753234915668138500,6.626138427734375,0.01466076634824276,-0.27611109614372253,0.1362229436635971
1753234915684156400,6.642156494140625,0.08246681094169617,-0.33108896017074585,0.2376265823841095
1753234915700139000,6.658138916015625,0.09468411654233932,-0.21013765037059784,0.2883284091949463
1753234915716140800,6.674140869140625,0.10812314599752426,0.04581489413976669,0.31093040108680725
1753234915732181800,6.690181640625,0.09896016865968704,0.23884831368923187,0.3029891550540924
1753234915748171500,6.706171630859375,0.09162978827953339,0.21930062770843506,0.304210901260376
1753234915764159200,6.7221591796875,0.13011430203914642,0.0507018156349659,0.34697145223617554
1753234915780136400,6.738136474609375,0.2064724564552307,-0.06169738993048668,0.35185837745666504
1753234915796172000,6.754172119140625,0.342695415019989,0.012217304669320583,0.28649580478668213
1753234915812148700,6.770148681640625,0.4801400899887085,0.16310101747512817,0.19853121042251587
1753234915828182500,6.7861826171875,0.5998696684837341,0.2541199326515198,0.06352998316287994
1753234915844237600,6.802237548828125,0.6059783101081848,0.20402899384498596,-0.022602014243602753
1753234915860217000,6.818217041015625,0.47708576917648315,0.1918116807937622,-0.02932153269648552
1753234915876204300,6.834204345703125,0.2889392673969269,0.3292563557624817,0.08185594528913498
1753234915892178000,6.850177978515625,0.18509216606616974,0.4105014503002167,0.2370157092809677
1753234915908170000,6.866169921875,0.16798794269561768,0.3854559659957886,0.35552358627319336
1753234915924180500,6.882180419921875,0.19364428520202637,0.2590068578720093,0.3139847218990326
1753234915940160500,6.898160400390625,0.24434609711170197,0.02382374368607998,0.06963863968849182
1753234915956147700,6.914147705078125,0.26633724570274353,-0.24434609711170197,-0.2632829248905182
1753234915972171800,6.930171875,0.25595253705978394,-0.46731191873550415,-0.5876523852348328
1753234915988221000,6.946220947265625,0.19853121042251587,-0.43127086758613586,-0.6548475623130798
1753234916004264000,6.962263916015625,0.08857546001672745,-0.3243694305419922,-0.5247332453727722
1753234916020255500,6.97825537109375,-0.04642575979232788,-0.13255776464939117,-0.2565633952617645
1753234916036305000,6.994304931640625,-0.11545353382825851,0.056810468435287476,-0.04337143152952194
1753234916052282400,7.010282470703125,-0.11545353382825851,0.17959438264369965,0.1417207419872284
1753234916068274400,7.0262744140625,-0.07819075137376785,0.14416420459747314,0.26145032048225403
1753234916084335400,7.04233544921875,-0.02015855349600315,0.004886921960860491,0.3494149148464203
1753234916100313600,7.058313720703125,0.02932153269648552,-0.1007927656173706,0.39706242084503174
1753234916116303400,7.074303466796875,0.06902777403593063,-0.13805554807186127,0.41722095012664795
1753234916132276700,7.09027685546875,0.06291911751031876,-0.11178833991289139,0.37751471996307373
1753234916148315000,7.10631494140625,0.03481931984424591,-0.0806342139840126,0.29626965522766113
1753234916164331300,7.122331298828125,-0.02382374368607998,-0.10201449692249298,0.14416420459747314
1753234916180309000,7.13830908203125,-0.04886921867728233,-0.2125810980796814,0.039706241339445114
1753234916196296400,7.15429638671875,-0.05253441259264946,-0.3903428912162781,0.05192354694008827
1753234916212314400,7.170314453125,-0.06719517707824707,-0.4434881806373596,0.18631389737129211
1753234916228299800,7.1862998046875,-0.13072516024112701,-0.46670106053352356,0.2883284091949463
1753234916244326700,7.20232666015625,-0.18081611394882202,-0.45142942667007446,0.21624629199504852
1753234916260302000,7.218302001953125,-0.22663100063800812,-0.34147366881370544,0.09040805697441101
1753234916276332000,7.23433203125,-0.2638937830924988,-0.24068090319633484,0.02382374368607998
1753234916292301300,7.25030126953125,-0.2626720666885376,-0.21013765037059784,0.039095375686883926
1753234916308330500,7.26633056640625,-0.3170390725135803,-0.20891591906547546,-0.033597588539123535
1753234916324383700,7.2823837890625,-0.4434881806373596,-0.059864792972803116,-0.2889392673969269
1753234916340371500,7.298371337890625,-0.6212499737739563,0.2125810980796814,-0.7440338730812073
1753234916356354800,7.314354736328125,-0.7128797173500061,0.40256020426750183,-1.06657075881958
1753234916372326100,7.330326171875,-0.6737843751907349,0.3897320330142975,-1.0268645286560059
1753234916388318700,7.346318603515625,-0.5112941861152649,0.1411098688840866,-0.6646214127540588
1753234916404331800,7.362331787109375,-0.2968805134296417,-0.10018189996480942,-0.18936823308467865
1753234916420307200,7.37830712890625,-0.08491026610136032,-0.17409659922122955,0.1875356286764145
1753234916436296400,7.39429638671875,0.02015855349600315,-0.1160643994808197,0.19792033731937408
1753234916452321000,7.410321044921875,0.05925392732024193,0.07269296050071716,-0.16493362188339233
1753234916468357400,7.426357421875,0.05497787147760391,0.2987131178379059,-0.6096435189247131
1753234916484343300,7.44234326171875,-0.04886921867728233,0.5803219676017761,-0.9896016716957092
1753234916500318500,7.458318359375,-0.08796459436416626,0.6517932415008545,-0.9908234477043152
1753234916516399000,7.474399169921875,-0.03481931984424591,0.44715335965156555,-0.6279694437980652
1753234916532374800,7.490374755859375,0.007941247895359993,0.18814650177955627,-0.1875356286764145
1753234916548377300,7.50637744140625,0.00427605677396059,-0.0024434609804302454,0.19303341209888458
1753234916564436700,7.522436767578125,-0.009773843921720982,-0.031154127791523933,0.4178318381309509
1753234916580414500,7.53841455078125,-0.04642575979232788,0.04337143152952194,0.40256020426750183
1753234916596403500,7.554403564453125,-0.07696902006864548,0.13805554807186127,0.2834414839744568
1753234916612375600,7.57037548828125,-0.07635815441608429,0.1014036312699318,0.16493362188339233
1753234916628411100,7.5864111328125,-0.029932396486401558,-0.03787364438176155,0.04764748737215996
1753234916644420400,7.60242041015625,0.02015855349600315,-0.21868975460529327,-0.02932153269648552
1753234916660398300,7.6183984375,0.030543262138962746,-0.4098905920982361,-0.02932153269648552
1753234916676385300,7.63438525390625,0.04398229718208313,-0.2828305959701538,0.11484266817569733
1753234916692402400,7.65040234375,0.04337143152952194,-0.08857546001672745,0.3433062732219696
1753234916708387000,7.666386962890625,0.08674286305904388,0.001832595793530345,0.5803219676017761
1753234916724361000,7.68236083984375,0.16859880089759827,-0.07819075137376785,0.626747727394104
1753234916740337000,7.6983369140625,0.3066543638706207,-0.15332718193531036,0.48685958981513977
1753234916756369000,7.714368896484375,0.4086688458919525,-0.16432274878025055,0.2816088795661926
1753234916772335600,7.730335693359375,0.50335294008255,-0.04459316283464432,0.07452555745840073
1753234916788366000,7.746365966796875,0.5577199459075928,0.10018189996480942,-0.012217304669320583
1753234916804418800,7.762418701171875,0.5479460954666138,0.14233160018920898,-0.08857546001672745
1753234916820393500,7.7783935546875,0.45204028487205505,0.05742133408784866,-0.23884831368923187
1753234916836380700,7.794380615234375,0.3023782968521118,0.10995574295520782,-0.3494149148464203
1753234916852352500,7.8103525390625,0.14416420459747314,0.3891211748123169,-0.23518311977386475
1753234916868343000,7.826343017578125,0.0708603709936142,0.5192354321479797,0.08307767659425735
1753234916884356600,7.842356689453125,0.06536258012056351,0.47769662737846375,0.42088615894317627
1753234916900332800,7.858332763671875,0.09651670604944229,0.3384193480014801,0.50335294008255
1753234916916320800,7.87432080078125,0.14355333149433136,0.07391469180583954,0.3029891550540924
1753234916932334300,7.890334228515625,0.17043140530586243,-0.08491026610136032,-0.07880161702632904
1753234916948363000,7.906363037109375,0.16920967400074005,0.03848451003432274,-0.5009095072746277
1753234916964373800,7.922373779296875,0.09773843735456467,0.28099802136421204,-0.7959573864936829
1753234916980347100,7.93834716796875,0.045204028487205505,0.3787364661693573,-0.750142514705658
1753234916996394200,7.954394287109375,0.018325956538319588,0.3781255781650543,-0.40622538328170776
1753234917012378000,7.970378173828125,0.02382374368607998,0.15271630883216858,-0.04764748737215996
1753234917028365800,7.98636572265625,0.07147123664617538,-0.20402899384498596,0.2571742534637451
1753234917044421000,8.002421142578125,0.10262536257505417,-0.304210901260376,0.3933972120285034
1753234917060398300,8.0183984375,0.0910189226269722,-0.18570303916931152,0.43249258399009705
1753234917076436500,8.0344365234375,0.09162978827953339,-0.0403171069920063,0.41172316670417786
1753234917092409000,8.0504091796875,0.10445795953273773,0.02687807008624077,0.39217549562454224
1753234917108445000,8.06644482421875,0.10018189996480942,-0.10384709388017654,0.31154128909111023
1753234917124454700,8.08245458984375,0.10995574295520782,-0.2217440903186798,0.2217440903186798
1753234917140425700,8.09842578125,0.0708603709936142,-0.3341432809829712,0.17776179313659668
1753234917156409300,8.114409423828125,-0.00366519158706069,-0.3127630054950714,0.22602014243602753
1753234917172433000,8.130432861328124,-0.09529497474431992,-0.2822197377681732,0.34758231043815613
1753234917188419300,8.14641943359375,-0.17104226350784302,-0.3439171314239502,0.42088615894317627
1753234917204458000,8.1624580078125,-0.23151792585849762,-0.3194825351238251,0.39095374941825867
1753234917220431600,8.178431640625,-0.2590068578720093,-0.22052235901355743,0.22418753802776337
1753234917252443400,8.210443359375,-0.2119702398777008,-0.07941248267889023,-0.09529497474431992
1753234917268487400,8.2264873046875,-0.22357667982578278,-0.004886921960860491,-0.23396138846874237
1753234917284544500,8.24254443359375,-0.3640756905078888,0.1563815027475357,-0.49785518646240234
1753234917300523800,8.258523681640625,-0.5308418869972229,0.30482175946235657,-0.7727445363998413
1753234917316516600,8.2745166015625,-0.6597344875335693,0.2272418737411499,-0.9902125597000122
1753234917332492300,8.2904921875,-0.598647952079773,0.036041051149368286,-0.9101892113685608
1753234917348484600,8.306484619140624,-0.4605923891067505,-0.2565633952617645,-0.6041457056999207
1753234917364499000,8.3224990234375,-0.25961771607398987,-0.4801400899887085,-0.16982053220272064
1753234917380476000,8.338475830078124,-0.04948008432984352,-0.43127086758613586,0.11667526513338089
1753234917396465200,8.354465087890626,0.10201449692249298,-0.21624629199504852,0.1918116807937622
1753234917412486100,8.370486083984375,0.12400564551353455,0.016493361443281174,0.015271631069481373
1753234917428519000,8.386518798828124,0.09712757170200348,0.192422553896904,-0.36590829491615295
1753234917444534000,8.402533935546876,0.04398229718208313,0.28038713335990906,-0.6817256212234497
1753234917460509000,8.418509033203126,-0.04153883829712868,0.3182607889175415,-0.7751879692077637
1753234917476542500,8.43454248046875,-0.07147123664617538,0.18814650177955627,-0.5791002511978149
1753234917492518400,8.450518310546874,-0.09834930300712585,0.10323622822761536,-0.18631389737129211
1753234917508534300,8.4665341796875,-0.10873401165008545,0.1313360333442688,0.2828305959701538
1753234917524592000,8.482592041015625,-0.07819075137376785,0.17104226350784302,0.523511528968811
1753234917540567300,8.4985673828125,-0.04886921867728233,0.24923302233219147,0.5552765130996704
1753234917556556300,8.514556396484375,-0.01038470957428217,0.23518311977386475,0.3805690407752991
1753234917572526800,8.53052685546875,0.02871066704392433,0.10812314599752426,0.07269296050071716
1753234917588560100,8.54656005859375,0.051312681287527084,-0.05314527451992035,-0.14294247329235077
1753234917604574200,8.56257421875,0.04886921867728233,-0.2370157092809677,-0.182648703455925
1753234917620548900,8.578548828125,0.06291911751031876,-0.394008070230484,-0.048258353024721146
1753234917636536800,8.594536865234375,0.08002334833145142,-0.3836233615875244,0.12828169763088226
1753234917652561700,8.610561767578124,0.07269296050071716,-0.2021963894367218,0.19608774781227112
1753234917668560600,8.626560546875,0.07819075137376785,0.00427605677396059,0.1160643994808197
1753234917684575500,8.642575439453125,0.11423180252313614,0.20525072515010834,0.001832595793530345
1753234917700598500,8.6585986328125,0.1368338167667389,0.24129177629947662,-0.048258353024721146
1753234917716638200,8.67463818359375,0.1569923609495163,0.10873401165008545,-0.04886921867728233
1753234917732624400,8.690624267578125,0.18570303916931152,-0.06902777403593063,-0.02015855349600315
1753234917748676000,8.706676025390625,0.2993239760398865,-0.1472185254096985,0.014049900695681572
1753234917764724700,8.722724853515626,0.4080579876899719,-0.16798794269561768,-0.021380282938480377
1753234917780751000,8.738751220703126,0.40194934606552124,-0.1270599663257599,-0.2565633952617645
1753234917796739600,8.754739501953125,0.24678955972194672,0.14233160018920898,-0.5400048494338989
1753234917812713000,8.770712890625,0.14049901068210602,0.5125159621238708,-0.4960225820541382
1753234917828705500,8.78670556640625,0.10873401165008545,0.6053674817085266,-0.07024950534105301
1753234917844721700,8.8027216796875,0.15271630883216858,0.43737950921058655,0.3121521472930908
1753234917860695800,8.81869580078125,0.1667662113904953,0.18325957655906677,0.44776421785354614
1753234917876681700,8.834681640625,0.14782938361167908,-0.03726277872920036,0.25473082065582275
1753234917892703500,8.850703369140625,0.09834930300712585,-0.251676470041275,-0.17531833052635193
1753234917908739300,8.8667392578125,0.09896016865968704,-0.19058994948863983,-0.588874101638794
1753234917924755500,8.88275537109375,0.07208210229873657,-0.05192354694008827,-0.8436049222946167
1753234917940732400,8.898732421875,-0.03420845419168472,0.1667662113904953,-0.7611380815505981
1753234917956766200,8.91476611328125,-0.12217304855585098,0.20463985204696655,-0.4447098970413208
1753234917972744200,8.930744140625,-0.13011430203914642,0.007941247895359993,-0.048258353024721146
1753234917988775700,8.946775634765626,-0.05314527451992035,-0.27000242471694946,0.23518311977386475
1753234918004831700,8.962831787109375,-0.001832595793530345,-0.394008070230484,0.4495968222618103
1753234918020806700,8.978806640625,0.015882495790719986,-0.3628539443016052,0.49724429845809937
1753234918036792000,8.9947919921875,0.06230825558304787,-0.15393804013729095,0.4440990388393402
1753234918052762600,9.0107626953125,0.05619960278272629,0.054367005825042725,0.3695734739303589
1753234918068799700,9.0267998046875,0.03787364438176155,0.02076941914856434,0.30543261766433716
1753234918084815400,9.0428154296875,0.04459316283464432,-0.1264491081237793,0.2620611786842346
1753234918100798200,9.058798095703125,0.001832595793530345,-0.1258382350206375,0.30115658044815063
1753234918116841200,9.07484130859375,-0.1563815027475357,-0.23884831368923187,0.4031710624694824
1753234918132871200,9.09087109375,-0.2070833146572113,-0.23579397797584534,0.5198463201522827
1753234918148863700,9.10686376953125,-0.2076941877603531,-0.2840523421764374,0.6499606370925903
1753234918164903400,9.1229033203125,-0.2223549485206604,-0.45326200127601624,0.6383541822433472
1753234918180892200,9.13889208984375,-0.20586158335208893,-0.5595525503158569,0.4190535545349121
1753234918196947700,9.15494775390625,-0.17531833052635193,-0.45326200127601624,0.19364428520202637
1753234918212922400,9.17092236328125,-0.17043140530586243,-0.27061331272125244,0.06352998316287994
1753234918228957000,9.18695703125,-0.18936823308467865,-0.04948008432984352,0.0708603709936142
1753234918245016000,9.20301611328125,-0.2272418737411499,0.05864306539297104,0.11362093687057495
1753234918260994800,9.218994873046874,-0.3029891550540924,0.23640485107898712,0.12217304855585098
1753234918276986000,9.234986083984374,-0.44715335965156555,0.3744603991508484,0.13500121235847473
1753234918292965600,9.250965576171875,-0.6145304441452026,0.3029891550540924,0.16554448008537292
1753234918308965600,9.266965576171875,-0.6475171446800232,-0.06780604273080826,0.08429940044879913
1753234918324984800,9.28298486328125,-0.45753806829452515,-0.4813618063926697,-0.11239920556545258
1753234918340970000,9.298969970703125,-0.2620611786842346,-0.6395758986473083,-0.2871066629886627
1753234918356971000,9.314970947265625,-0.11972958594560623,-0.5589417219161987,-0.4098905920982361
1753234918373004300,9.33100439453125,-0.013439035043120384,-0.1820378452539444,-0.47830748558044434
1753234918389060000,9.34706005859375,0.016493361443281174,0.2174680233001709,-0.5271766781806946
1753234918405111800,9.36311181640625,-0.005497787147760391,0.5088507533073425,-0.5503895878791809
1753234918421107700,9.379107666015624,-0.013439035043120384,0.5448917746543884,-0.5100724697113037
1753234918437164800,9.395164794921875,0.001832595793530345,0.4080579876899719,-0.3194825351238251
1753234918453155000,9.411155029296875,-0.004886921960860491,0.2278527319431305,-0.05803219974040985
1753234918469180400,9.427180419921875,-0.022602014243602753,0.11423180252313614,0.21807889640331268
1753234918485241600,9.44324169921875,0.0354301854968071,0.14049901068210602,0.3536909818649292
1753234918501256700,9.459256591796875,0.08735372871160507,0.2681698501110077,0.40133845806121826
1753234918517294300,9.47529443359375,0.1014036312699318,0.3885102868080139,0.38179078698158264
1753234918533269200,9.491269287109375,0.11667526513338089,0.4147774875164032,0.32009339332580566
1753234918549305000,9.50730517578125,0.12034045159816742,0.342695415019989,0.23029619455337524
1753234918565321700,9.52332177734375,0.1215621829032898,0.17104226350784302,0.14905111491680145
1753234918581299000,9.539298828125,0.14538592100143433,-0.1319468915462494,0.030543262138962746
1753234918597283000,9.555282958984375,0.17470745742321014,-0.35735616087913513,-0.0012217304902151227
1753234918613307400,9.571307373046874,0.14782938361167908,-0.31520646810531616,0.05314527451992035
1753234918629299000,9.587298828125,0.09834930300712585,-0.05864306539297104,0.15882496535778046
1753234918645312300,9.603312255859375,0.031154127791523933,0.1514945775270462,0.2480112910270691
1753234918661319400,9.6193193359375,0.01466076634824276,0.24495697021484375,0.2571742534637451
1753234918677355500,9.63535546875,0.06230825558304787,0.28466320037841797,0.16065755486488342
1753234918693329700,9.65132958984375,0.10506882518529892,0.14355333149433136,-0.06352998316287994
1753234918709400300,9.667400390625,0.2119702398777008,0.042760565876960754,-0.21013765037059784
1753234918725458700,9.683458740234375,0.4080579876899719,-0.028099801391363144,-0.17104226350784302
1753234918741443000,9.699443115234375,0.5442809462547302,-0.07819075137376785,-0.06963863968849182
1753234918757432300,9.715432373046875,0.6279694437980652,-0.05925392732024193,-0.004886921960860491
1753234918773405400,9.731405517578125,0.4862487316131592,0.056810468435287476,-0.029932396486401558
1753234918789399300,9.7473994140625,0.28649580478668213,0.2889392673969269,-0.021380282938480377
1753234918805416200,9.763416259765625,0.16249015927314758,0.41599923372268677,0.16310101747512817
1753234918821394000,9.779393798828124,0.17776179313659668,0.29565876722335815,0.3591887652873993
1753234918837384000,9.795384033203124,0.22052235901355743,0.08979719132184982,0.42699480056762695
1753234918853405000,9.811405029296875,0.22540926933288574,-0.12278391420841217,0.2577851414680481
1753234918869438200,9.827438232421875,0.2571742534637451,-0.2919935882091522,-0.18631389737129211
1753234918885454000,9.8434541015625,0.2718350291252136,-0.24495697021484375,-0.5937610268592834
1753234918901431600,9.859431640625,0.24373523890972137,-0.056810468435287476,-0.8839219808578491
1753234918917470200,9.87547021484375,0.22052235901355743,0.10995574295520782,-0.8484918475151062
1753234918933457000,9.891456787109375,0.18936823308467865,0.26083946228027344,-0.5552765130996704
1753234918949500400,9.90750048828125,0.14416420459747314,0.29077184200286865,-0.12889257073402405
1753234918965560600,9.923560546875,0.12278391420841217,0.17348572611808777,0.152105450630188
1753234918981542000,9.9395419921875,0.12950342893600464,-0.07269296050071716,0.3439171314239502
1753234918997532000,9.955531982421874,0.2064724564552307,-0.19425514340400696,0.44165557622909546
1753234919013506000,9.971506103515624,0.251676470041275,-0.24373523890972137,0.4349360466003418
1753234919029547500,9.987547607421876,0.2791654169559479,-0.18570303916931152,0.32498031854629517
1753234919045563400,10.0035634765625,0.2889392673969269,-0.04642575979232788,0.14294247329235077
1753234919061539300,10.019539306640626,0.25473082065582275,0.0507018156349659,0.00855211354792118
1753234919077528600,10.035528564453125,0.14477506279945374,0.022602014243602753,-0.08307767659425735
1753234919093551400,10.05155126953125,-0.007941247895359993,-0.03848451003432274,-0.1111774742603302
1753234919109544200,10.067544189453125,-0.10567969083786011,-0.18570303916931152,0.019547687843441963
1753234919125562400,10.083562255859375,-0.2217440903186798,-0.24556782841682434,0.33292156457901
1753234919141568000,10.099568115234375,-0.32498031854629517,-0.21991148591041565,0.5723807215690613
1753234919157604600,10.1156044921875,-0.3842342495918274,-0.1472185254096985,0.6145304441452026
1753234919173577000,10.131576904296875,-0.3646865487098694,-0.13377949595451355,0.4508185386657715
1753234919189605000,10.147605224609375,-0.31642818450927734,-0.21319197118282318,0.15943582355976105
1753234919205660200,10.16366015625,-0.304210901260376,-0.2669481039047241,-0.05314527451992035
1753234919221636400,10.17963623046875,-0.3591887652873993,-0.21380282938480377,-0.20341812074184418
1753234919237625900,10.1956259765625,-0.5002986192703247,-0.03787364438176155,-0.403781920671463
1753234919253597700,10.21159765625,-0.6328563690185547,0.182648703455925,-0.6481280326843262
1753234919269588700,10.227588623046875,-0.6774495840072632,0.3646865487098694,-0.8045095205307007
1753234919285600300,10.243600341796874,-0.6041457056999207,0.2571742534637451,-0.6481280326843262
1753234919301574100,10.25957421875,-0.4196644127368927,-0.1215621829032898,-0.21013765037059784
1753234919317560300,10.275560302734375,-0.21319197118282318,-0.42577308416366577,0.1362229436635971
1753234919333583600,10.29158349609375,-0.031154127791523933,-0.5442809462547302,0.32009339332580566
1753234919349616000,10.3076162109375,0.0806342139840126,-0.43676865100860596,0.2474004179239273
1753234919365631000,10.323630859375,0.09224065393209457,-0.18387043476104736,-0.05253441259264946
1753234919381607700,10.339607666015626,0.04214970022439957,0.1215621829032898,-0.5161811113357544
1753234919397641700,10.355641845703126,-0.036651913076639175,0.25473082065582275,-0.788627028465271
1753234919413624000,10.3716240234375,-0.10506882518529892,0.22663100063800812,-0.788016140460968
1753234919429624800,10.387624755859376,-0.1111774742603302,0.11056660860776901,-0.5632177591323853
1753234919445676500,10.403676513671876,-0.11178833991289139,0.0659734457731247,-0.22540926933288574
1753234919461662000,10.419661865234374,-0.09773843735456467,0.07941248267889023,0.03787364438176155
1753234919477644800,10.435644775390625,-0.05925392732024193,0.15577064454555511,0.2278527319431305
1753234919493612300,10.4516123046875,-0.04153883829712868,0.22663100063800812,0.3194825351238251
1753234919509647600,10.467647705078125,-0.014049900695681572,0.2681698501110077,0.30482175946235657
1753234919525659600,10.48365966796875,0.029932396486401558,0.2828305959701538,0.20341812074184418
1753234919541636000,10.499635986328125,0.04214970022439957,0.20952677726745605,0.10567969083786011
1753234919557622500,10.51562255859375,0.056810468435287476,0.06352998316287994,0.036651913076639175
1753234919573641200,10.53164111328125,0.09224065393209457,-0.1319468915462494,-0.02076941914856434
1753234919589629000,10.54762890625,0.152105450630188,-0.3445279896259308,-0.03848451003432274
1753234919605645600,10.5636455078125,0.1612684279680252,-0.2932153046131134,0.05314527451992035
1753234919621622300,10.579622314453125,0.13805554807186127,-0.06841690838336945,0.2125810980796814
1753234919637654500,10.595654541015625,0.09651670604944229,0.12828169763088226,0.394618958234787
1753234919653653500,10.611653564453125,0.08429940044879913,0.13805554807186127,0.4715879559516907
1753234919669683000,10.627682861328125,0.08368854224681854,0.07330382615327835,0.4202753007411957
1753234919685738500,10.643738525390624,0.10201449692249298,-0.022602014243602753,0.26450464129447937
1753234919701716000,10.659716064453125,0.21807889640331268,-0.08368854224681854,0.03420845419168472
1753234919733683700,10.69168359375,0.5143485069274902,0.025656340643763542,-0.2541199326515198
1753234919749676300,10.70767626953125,0.5455026626586914,0.1160643994808197,-0.30543261766433716
1753234919765693200,10.723693115234376,0.4544837474822998,0.22602014243602753,-0.22052235901355743
1753234919781670400,10.73967041015625,0.31093040108680725,0.3390302062034607,0.05619960278272629
1753234919797663200,10.755663330078125,0.2174680233001709,0.30543261766433716,0.33108896017074585
1753234919813689600,10.771689697265625,0.15882496535778046,0.17409659922122955,0.48685958981513977
1753234919829722400,10.787722412109375,0.1062905490398407,0.04459316283464432,0.3793473243713379
1753234919845739500,10.803739501953125,0.06780604273080826,-0.09468411654233932,0.029932396486401558
1753234919861716500,10.819716552734375,0.06475171446800232,-0.1111774742603302,-0.3384193480014801
1753234919877750500,10.83575048828125,0.07513642311096191,0.015271631069481373,-0.608421802520752
1753234919893739000,10.851739013671875,0.05619960278272629,0.15454891324043274,-0.6572909951210022
1753234919909745400,10.867745361328126,0.02871066704392433,0.24984388053417206,-0.5186246037483215
1753234919925801000,10.883801025390625,0.004886921960860491,0.21868975460529327,-0.30054569244384766
1753234919941791200,10.899791259765625,0.012828170321881771,0.07330382615327835,-0.12339477986097336
1753234919957781500,10.915781494140624,0.024434609338641167,-0.11301007121801376,0.0757472887635231
1753234919973753300,10.93175341796875,0.012217304669320583,-0.1417207419872284,0.20402899384498596
1753234919989787400,10.947787353515626,0.007941247895359993,-0.00855211354792118,0.28588494658470154
1753234920005798400,10.96379833984375,0.00855211354792118,0.12034045159816742,0.32559117674827576
1753234920021770800,10.979770751953126,0.02626720629632473,0.192422553896904,0.3378084897994995
1753234920037754400,10.99575439453125,0.05925392732024193,0.08185594528913498,0.3237585723400116
1753234920053776000,11.01177587890625,0.07941248267889023,-0.17592918872833252,0.2932153046131134
1753234920069776600,11.027776611328125,0.07880161702632904,-0.3738495409488678,0.26022860407829285
1753234920085793500,11.04379345703125,-0.004886921960860491,-0.48197266459465027,0.21135938167572021
1753234920101774600,11.059774658203125,-0.11728613078594208,-0.47219884395599365,0.17104226350784302
1753234920117817600,11.075817626953125,-0.22418753802776337,-0.3066543638706207,0.13988813757896423
1753234920133816800,11.09181689453125,-0.33108896017074585,-0.01038470957428217,0.17409659922122955
1753234920149847600,11.10784765625,-0.42271876335144043,0.2015855312347412,0.24862214922904968
1753234920165903000,11.123903076171874,-0.4300491213798523,0.26511552929878235,0.2981022298336029
1753234920181925000,11.139925048828125,-0.36590829491615295,0.18814650177955627,0.27550023794174194
1753234920197916200,11.155916259765625,-0.3286454975605011,0.09407325088977814,0.1722639948129654
1753234920213891000,11.17189111328125,-0.394008070230484,-0.04092797264456749,-0.10690141469240189
1753234920229885200,11.18788525390625,-0.49296826124191284,-0.19608774781227112,-0.5174028873443604
1753234920245899500,11.2038994140625,-0.5601634383201599,-0.3604104816913605,-1.0170906782150269
1753234920261877200,11.219877197265625,-0.5222898125648499,-0.47219884395599365,-1.0366383790969849
1753234920277865500,11.235865478515626,-0.5161811113357544,-0.5412266254425049,-0.5393940210342407
1753234920293886700,11.25188671875,-0.4660901725292206,-0.5742133259773254,-0.04764748737215996
1753234920309917400,11.26791748046875,-0.2687807083129883,-0.5791002511978149,0.28466320037841797
1753234920325931000,11.283930908203125,-0.07513642311096191,-0.5717698931694031,0.31520646810531616
1753234920341905400,11.299905517578125,-0.027488935738801956,-0.37140607833862305,0.004886921960860491
1753234920357937400,11.3159375,-0.03420845419168472,0.1215621829032898,-0.6126978397369385
1753234920373908000,11.331907958984376,-0.06536258012056351,0.5381723046302795,-1.084285855293274
1753234920389892400,11.347892333984374,-0.13377949595451355,0.769079327583313,-1.2107349634170532
1753234920405948400,11.363948486328125,-0.17104226350784302,0.6676757335662842,-0.9645562171936035
1753234920421926100,11.379926025390626,-0.20463985204696655,0.3139847218990326,-0.40683624148368835
1753234920437920500,11.39592041015625,-0.2565633952617645,0.2015855312347412,0.09529497474431992
1753234920453893000,11.41189306640625,-0.2535090744495392,0.13927727937698364,0.4691445231437683
1753234920469929500,11.427929443359375,-0.21807889640331268,0.11545353382825851,0.665232241153717
1753234920485912000,11.443912109375,-0.14844025671482086,0.23640485107898712,0.6572909951210022
1753234920501882000,11.459882080078126,-0.0555887371301651,0.33597588539123535,0.47280970215797424
1753234920517867300,11.4758671875,0.03848451003432274,0.16065755486488342,0.1722639948129654
1753234920533886500,11.491886474609375,0.1569923609495163,0.025045474991202354,-0.1875356286764145
1753234920549872600,11.50787255859375,0.1869247704744339,-0.09468411654233932,-0.394618958234787
1753234920565923000,11.523923095703125,0.18875735998153687,-0.16493362188339233,-0.43249258399009705
1753234920581900000,11.539900146484374,0.22479841113090515,-0.02932153269648552,-0.18997909128665924
1753234920597984300,11.555984375,0.26939156651496887,0.1264491081237793,0.2541199326515198
1753234920613960700,11.571960693359374,0.25961771607398987,0.3585779070854187,0.6982190012931824
1753234920629995800,11.587995849609374,0.2474004179239273,0.5510004758834839,0.7819074988365173
1753234920646030300,11.6040302734375,0.2541199326515198,0.5283984541893005,0.5461135506629944
1753234920662008800,11.6200087890625,0.3286454975605011,0.2541199326515198,0.20036379992961884
1753234920693973800,11.651973876953125,0.6432411074638367,-0.18936823308467865,-0.14538592100143433
1753234920709964500,11.667964599609375,0.6823364496231079,-0.1062905490398407,-0.05375614017248154
1753234920725980200,11.683980224609375,0.6927211880683899,0.03420845419168472,-0.08002334833145142
1753234920741960400,11.69996044921875,0.6120869517326355,0.03237585723400116,-0.2938261926174164
1753234920757948700,11.71594873046875,0.4489859640598297,0.15454891324043274,-0.4966334402561188
1753234920773970200,11.73197021484375,0.35613444447517395,0.3390302062034607,-0.3830125033855438
1753234920789999400,11.747999267578125,0.3084869384765625,0.32620203495025635,0.00366519158706069
1753234920806040000,11.7640400390625,0.30970868468284607,0.12095131725072861,0.28099802136421204
1753234920822015700,11.780015625,0.28649580478668213,-0.18814650177955627,0.342695415019989
1753234920838046700,11.796046630859376,0.251676470041275,-0.43127086758613586,0.1264491081237793
1753234920854014000,11.812013916015625,0.2583959996700287,-0.49846604466438293,-0.2571742534637451
1753234920870001200,11.828001220703126,0.2431243658065796,-0.3121521472930908,-0.7275404930114746
1753234920886056200,11.84405615234375,0.18631389737129211,-0.1569923609495163,-0.930347740650177
1753234920902062800,11.860062744140626,0.12889257073402405,-0.025656340643763542,-0.7617489695549011
1753234920918057000,11.876056884765624,0.10995574295520782,0.007941247895359993,-0.37690386176109314
1753234920934042400,11.89204248046875,0.13316862285137177,-0.1313360333442688,0.09040805697441101
1753234920950079000,11.908078857421875,0.15943582355976105,-0.26511552929878235,0.3396410644054413
1753234920966094300,11.92409423828125,0.1820378452539444,-0.24190263450145721,0.40683624148368835
1753234920982070500,11.940070556640626,0.16982053220272064,-0.06475171446800232,0.3280346393585205
1753234920998058000,11.95605810546875,0.12461651116609573,0.14966198801994324,0.2119702398777008
1753234921014078200,11.972078125,0.08124507963657379,0.2528982162475586,0.13744467496871948
1753234921030068000,11.98806787109375,0.07635815441608429,0.16982053220272064,0.1111774742603302
1753234921046131200,12.004131103515626,0.009773843921720982,-0.012828170321881771,0.09285151958465576
1753234921062115300,12.020115234375,-0.05253441259264946,-0.19425514340400696,0.11484266817569733
1753234921078152700,12.036152587890625,-0.0806342139840126,-0.3689626157283783,0.2376265823841095
1753234921094124800,12.052124755859374,-0.1062905490398407,-0.44287729263305664,0.3683517575263977
1753234921110155500,12.068155517578125,-0.14233160018920898,-0.42760565876960754,0.39706242084503174
1753234921126189300,12.084189208984375,-0.18570303916931152,-0.29077184200286865,0.28649580478668213
1753234921142207000,12.10020703125,-0.24434609711170197,-0.08124507963657379,0.14233160018920898
1753234921166179300,12.124179443359376,-0.28527405858039856,0.10751228034496307,0.09712757170200348
1753234921182152200,12.140152099609375,-0.27488934993743896,0.19303341209888458,0.14294247329235077
1753234921198189600,12.156189453125,-0.3439171314239502,0.3194825351238251,0.10751228034496307
1753234921214157600,12.172157470703125,-0.48808133602142334,0.4508185386657715,-0.0659734457731247
1753234921230145000,12.18814501953125,-0.655458390712738,0.4960225820541382,-0.34147366881370544
1753234921246159000,12.2041591796875,-0.7409795522689819,0.2675589919090271,-0.4489859640598297
1753234921262173700,12.220173583984375,-0.6994407176971436,-0.18387043476104736,-0.2669481039047241
1753234921278208000,12.2362080078125,-0.5754350423812866,-0.6359107494354248,0.029932396486401558
1753234921294178300,12.25217822265625,-0.4001167416572571,-0.8900306820869446,0.2583959996700287
1753234921310212000,12.268212158203125,-0.24617868661880493,-0.8252789378166199,0.25045475363731384
1753234921326177000,12.284177001953125,-0.11423180252313614,-0.578489363193512,0.00366519158706069
1753234921342147800,12.30014794921875,-0.00427605677396059,-0.05864306539297104,-0.5320636034011841
1753234921358176500,12.316176513671875,-0.018936822190880775,0.3854559659957886,-0.9682214260101318
1753234921374186800,12.332186767578126,-0.16982053220272064,0.656069278717041,-1.1087204217910767
1753234921390173200,12.348173095703125,-0.24373523890972137,0.6768386960029602,-0.8839219808578491
1753234921406184200,12.36418408203125,-0.28099802136421204,0.4856378734111786,-0.3604104816913605
1753234921422202600,12.38020263671875,-0.28038713335990906,0.2822197377681732,0.15577064454555511
1753234921438258000,12.3962578125,-0.21013765037059784,0.21074850857257843,0.5564982295036316
1753234921454229800,12.412229736328126,-0.14538592100143433,0.25534167885780334,0.6200281977653503
1753234921470219500,12.428219482421875,-0.10201449692249298,0.2938261926174164,0.4789183437824249
1753234921486232600,12.444232666015624,-0.04459316283464432,0.32681289315223694,0.2119702398777008
1753234921502200800,12.460200927734375,-0.012828170321881771,0.2125810980796814,0.0006108652451075613
1753234921518232000,12.476232177734374,0.012828170321881771,-0.09285151958465576,-0.08185594528913498
1753234921534207700,12.492207763671875,0.04398229718208313,-0.3084869384765625,0.01466076634824276
1753234921550241500,12.508241455078124,0.11301007121801376,-0.4251621961593628,0.26572638750076294
1753234921566207500,12.52420751953125,0.1459967941045761,-0.37629300355911255,0.5357288122177124
1753234921582230500,12.54023046875,0.11728613078594208,-0.0910189226269722,0.7617489695549011
1753234921598273800,12.556273681640626,0.12034045159816742,0.26083946228027344,0.7825183868408203
1753234921614331600,12.57233154296875,0.09773843735456467,0.4495968222618103,0.6310238242149353
1753234921630321700,12.58832177734375,0.09957103431224823,0.2889392673969269,0.32620203495025635
1753234921654275600,12.612275634765625,0.1612684279680252,-0.08429940044879913,-0.1319468915462494
1753234921670264800,12.628264892578125,0.2791654169559479,-0.04398229718208313,-0.19608774781227112
1753234921686277600,12.644277587890626,0.4043927788734436,0.01466076634824276,-0.036041051149368286
1753234921702249700,12.660249755859375,0.5393940210342407,0.07391469180583954,0.2474004179239273
1753234921718235000,12.67623486328125,0.5766568183898926,-0.01160643994808197,0.3536909818649292
1753234921734253300,12.69225341796875,0.5387831330299377,0.06291911751031876,0.33719760179519653
1753234921750284500,12.708284423828125,0.4001167416572571,0.2736676335334778,0.3292563557624817
1753234921766297900,12.7242978515625,0.23579397797584534,0.4355469346046448,0.35063666105270386
1753234921782272500,12.7402724609375,0.16920967400074005,0.37201693654060364,0.3182607889175415
1753234921798306000,12.75630615234375,0.1472185254096985,0.03848451003432274,0.13439035415649414
1753234921814281500,12.772281494140625,0.14477506279945374,-0.3494149148464203,-0.1875356286764145
1753234921830278400,12.7882783203125,0.14782938361167908,-0.4288274049758911,-0.5913175344467163
1753234921846337300,12.804337158203126,0.08368854224681854,-0.13500121235847473,-0.9902125597000122
1753234921862322400,12.820322509765624,-0.009162978269159794,0.1472185254096985,-1.06351637840271
1753234921878324200,12.83632421875,-0.05253441259264946,0.30482175946235657,-0.7635815739631653
1753234921894313500,12.8523134765625,-0.028099801391363144,0.24190263450145721,-0.36163222789764404
1753234921910351600,12.8683515625,-0.01160643994808197,-0.06536258012056351,-0.016493361443281174
1753234921926367200,12.8843671875,0.01771509274840355,-0.31642818450927734,0.07757988572120667
1753234921942342700,12.9003427734375,0.06108652427792549,-0.4300491213798523,0.06658431142568588
1753234921958329300,12.916329345703126,0.09773843735456467,-0.394008070230484,0.04764748737215996
1753234921974354400,12.9323544921875,0.11972958594560623,-0.34025195240974426,0.07208210229873657
1753234921990346500,12.948346435546876,0.12400564551353455,-0.18997909128665924,0.1362229436635971
1753234922006363100,12.964363037109376,0.0757472887635231,-0.06719517707824707,0.17531833052635193
1753234922022339000,12.980339111328124,0.0555887371301651,-0.018936822190880775,0.17104226350784302
1753234922038383600,12.996383544921875,0.05314527451992035,-0.02382374368607998,0.1313360333442688
1753234922054358300,13.012358154296875,0.04337143152952194,-0.1062905490398407,0.13072516024112701
1753234922070398200,13.028398193359376,-0.00366519158706069,-0.1667662113904953,0.18448130786418915
1753234922086454000,13.0444541015625,-0.05253441259264946,-0.25106561183929443,0.2474004179239273
1753234922102447400,13.060447265625,-0.12950342893600464,-0.2883284091949463,0.2626720666885376
1753234922118436400,13.076436279296875,-0.20586158335208893,-0.26145032048225403,0.20525072515010834
1753234922134406000,13.092406005859376,-0.2730567753314972,-0.1612684279680252,0.06658431142568588
1753234922150397400,13.1083974609375,-0.28649580478668213,-0.08002334833145142,-0.03848451003432274
1753234922166411000,13.124410888671875,-0.2877175211906433,0.0861319974064827,-0.07757988572120667
1753234922182386700,13.14038671875,-0.35552358627319336,0.26083946228027344,-0.07819075137376785
1753234922198375200,13.156375244140625,-0.46853363513946533,0.35246923565864563,-0.18814650177955627
1753234922214396400,13.172396484375,-0.5589417219161987,0.3640756905078888,-0.41722095012664795
1753234922230429400,13.188429443359375,-0.598647952079773,0.28588494658470154,-0.6395758986473083
1753234922246445000,13.204445068359375,-0.5393940210342407,0.03787364438176155,-0.6279694437980652
1753234922262421500,13.22042138671875,-0.4251621961593628,-0.28038713335990906,-0.3878994286060333
1753234922278456800,13.236456787109375,-0.2919935882091522,-0.6120869517326355,-0.009162978269159794
1753234922294436900,13.252436767578125,-0.18570303916931152,-0.6731734871864319,0.23518311977386475
1753234922310438100,13.268438232421875,-0.0757472887635231,-0.5076290369033813,0.2742784917354584
1753234922326493200,13.2844931640625,-0.03848451003432274,-0.2064724564552307,0.08674286305904388
1753234922342468000,13.300468017578124,-0.11178833991289139,0.0708603709936142,-0.3500257730484009
1753234922358456300,13.316456298828125,-0.18814650177955627,0.13255776464939117,-0.6884451508522034
1753234922374443000,13.332443115234375,-0.22479841113090515,0.07819075137376785,-0.789237916469574
1753234922390504400,13.34850439453125,-0.20097467303276062,0.001832595793530345,-0.6139195561408997
1753234922406520300,13.364520263671874,-0.1270599663257599,0.08368854224681854,-0.28099802136421204
1753234922422508800,13.3805087890625,-0.04337143152952194,0.38179078698158264,0.17470745742321014
1753234922438514700,13.3965146484375,-0.005497787147760391,0.6023131608963013,0.455705463886261
1753234922454537000,13.412536865234374,0.039706241339445114,0.685390830039978,0.5522221922874451
1753234922470526200,13.428526123046876,0.04398229718208313,0.6524040699005127,0.5064072608947754
1753234922486546700,13.444546630859374,0.02076941914856434,0.5180137157440186,0.3683517575263977
1753234922502525000,13.46052490234375,-0.00366519158706069,0.3170390725135803,0.2431243658065796
1753234922518557400,13.476557373046875,0.021380282938480377,0.04703662544488907,0.1765400618314743
1753234922534534400,13.492534423828126,0.08918632566928864,-0.21624629199504852,0.17898350954055786
1753234922550581200,13.508581298828124,0.1508837193250656,-0.2070833146572113,0.24923302233219147
1753234922566637600,13.524637451171875,0.13072516024112701,0,0.342695415019989
1753234922582622200,13.540622314453126,0.09407325088977814,0.1722639948129654,0.39156460762023926
1753234922598623200,13.556623291015624,0.09834930300712585,0.303600013256073,0.4080579876899719
1753234922614643700,13.572643798828125,0.10201449692249298,0.2431243658065796,0.3579670190811157
1753234922630635800,13.5886357421875,0.1215621829032898,0.10995574295520782,0.20402899384498596
1753234922646649600,13.604649658203124,0.182648703455925,0.027488935738801956,0.028099801391363144
1753234922662630000,13.6206298828125,0.3127630054950714,-0.007941247895359993,-0.09957103431224823
1753234922678624500,13.63662451171875,0.4905247986316681,-0.17531833052635193,-0.12950342893600464
1753234922694646300,13.652646240234375,0.5687155723571777,-0.3237585723400116,-0.20463985204696655
1753234922710684700,13.6686845703125,0.4990769028663635,-0.2816088795661926,-0.4740314185619354
1753234922726701800,13.684701904296874,0.3494149148464203,0.06719517707824707,-0.6591235995292664
1753234922742681900,13.700681884765626,0.1667662113904953,0.6017022728919983,-0.494189977645874
1753234922758714600,13.716714599609375,0.08491026610136032,0.8008443117141724,-0.05192354694008827
1753234922774689000,13.73268896484375,0.09468411654233932,0.5387831330299377,0.40133845806121826
1753234922790706000,13.748705810546875,0.13255776464939117,0.20036379992961884,0.48258355259895325
1753234922806761200,13.76476123046875,0.1667662113904953,-0.19486601650714874,0.24495697021484375
1753234922822739500,13.780739501953125,0.18509216606616974,-0.4990769028663635,-0.29504790902137756
1753234922838728700,13.796728759765625,0.15454891324043274,-0.40744712948799133,-0.7617489695549011
1753234922854702800,13.812702880859375,0.07696902006864548,-0.06658431142568588,-1.0458012819290161
1753234922870741000,13.828740966796875,0.015271631069481373,0.20463985204696655,-0.9370672702789307
1753234922886755000,13.844755126953125,-0.02015855349600315,0.3029891550540924,-0.4960225820541382
1753234922902735600,13.860735595703124,-0.01160643994808197,0.059864792972803116,-0.036651913076639175
1753234922918736600,13.876736572265624,0.05925392732024193,-0.27061331272125244,0.33536502718925476
1753234922934759700,13.892759765625,0.1466076523065567,-0.4599815309047699,0.5448917746543884
1753234922950752000,13.908751953125,0.15271630883216858,-0.38606682419776917,0.5412266254425049
1753234922966767000,13.92476708984375,0.1319468915462494,-0.21441370248794556,0.40256020426750183
1753234922982741200,13.9407412109375,0.1313360333442688,-0.08918632566928864,0.2223549485206604
1753234922998772200,13.956772216796875,0.08979719132184982,-0.01710422709584236,0.05497787147760391
1753234923014741200,13.9727412109375,0.06536258012056351,-0.12095131725072861,-0.006108652334660292
1753234923030798800,13.988798828125,0.05009094998240471,-0.252287358045578,0.04764748737215996
1753234923046852000,14.00485205078125,-0.021991148591041565,-0.2669481039047241,0.16982053220272064
1753234923062864000,14.02086376953125,-0.10384709388017654,-0.23090706765651703,0.2736676335334778
1753234923078864100,14.036864013671876,-0.1417207419872284,-0.1722639948129654,0.21319197118282318
1753234923094851600,14.0528515625,-0.17959438264369965,-0.08307767659425735,0.039706241339445114
1753234923110845700,14.068845703125,-0.2272418737411499,0.07147123664617538,-0.1466076523065567
1753234923126838500,14.084838623046876,-0.2816088795661926,0.19486601650714874,-0.17348572611808777
1753234923142813700,14.100813720703124,-0.2968805134296417,0.19853121042251587,-0.060475658625364304
1753234923166835200,14.124835205078124,-0.303600013256073,0.11423180252313614,0.13866640627384186
1753234923182850600,14.1408505859375,-0.3335324227809906,0.11301007121801376,0.15332718193531036
1753234923198885600,14.1568857421875,-0.4080579876899719,0.17104226350784302,-0.015271631069481373
1753234923214859000,14.17285888671875,-0.5516113042831421,0.2968805134296417,-0.22296582162380219
1753234923230900000,14.18889990234375,-0.5833762884140015,0.26633724570274353,-0.2571742534637451
1753234923246869800,14.204869873046874,-0.4911356568336487,0.1007927656173706,-0.17409659922122955
1753234923262883000,14.220883056640625,-0.4239404797554016,-0.13439035415649414,-0.0354301854968071
1753234923278919400,14.23691943359375,-0.34208452701568604,-0.3170390725135803,0.0806342139840126
1753234923294933000,14.25293310546875,-0.22907446324825287,-0.5186246037483215,0.001832595793530345
1753234923310971100,14.26897119140625,-0.0861319974064827,-0.4508185386657715,-0.30482175946235657
1753234923326940000,14.28493994140625,0.003054326167330146,-0.12095131725072861,-0.8002334833145142
1753234923342959900,14.3009599609375,-0.012828170321881771,0.16920967400074005,-1.1227703094482422
1753234923358998000,14.316998046875,-0.08552113175392151,0.4080579876899719,-1.1453723907470703
1753234923374974700,14.332974609375,-0.1270599663257599,0.4001167416572571,-0.902247965335846
1753234923390975500,14.3489755859375,-0.1514945775270462,0.19364428520202637,-0.4080579876899719
1753234923406990600,14.364990478515624,-0.13561208546161652,-0.0507018156349659,0.04092797264456749
1753234923422976300,14.380976318359375,-0.09040805697441101,-0.04642575979232788,0.36590829491615295
1753234923439011600,14.397011474609375,-0.08368854224681854,0.2217440903186798,0.5265658497810364
1753234923454986200,14.412986328125,-0.08552113175392151,0.47280970215797424,0.5277875661849976
1753234923471020000,14.42902001953125,-0.06536258012056351,0.5668829679489136,0.44837507605552673
1753234923486987000,14.444987060546875,-0.02382374368607998,0.36713001132011414,0.35246923565864563
1753234923503049500,14.461049560546876,0.0555887371301651,-0.04459316283464432,0.2828305959701538
1753234923519086300,14.47708642578125,0.08185594528913498,-0.22113321721553802,0.32681289315223694
1753234923535107600,14.493107666015625,0.01771509274840355,-0.19608774781227112,0.455705463886261
1753234923551108000,14.509108154296875,-0.007941247895359993,-0.19058994948863983,0.5009095072746277
1753234923567072300,14.525072265625,-0.0024434609804302454,-0.13072516024112701,0.4801400899887085
1753234923583058700,14.54105859375,-0.006108652334660292,-0.0507018156349659,0.4599815309047699
1753234923599116000,14.557115966796875,-0.003054326167330146,-0.07330382615327835,0.3787364661693573
1753234923615099600,14.573099609375,0.051312681287527084,-0.10262536257505417,0.10690141469240189
1753234923631093000,14.589093017578126,0.04581489413976669,-0.1417207419872284,-0.1973094791173935
1753234923655129000,14.613129150390625,0.009162978269159794,-0.07513642311096191,-0.46853363513946533
1753234923671158000,14.629157958984376,0.07880161702632904,0.03420845419168472,-0.3634648323059082
1753234923687209500,14.64520947265625,0.15027284622192383,0.1569923609495163,-0.14049901068210602
1753234923703185000,14.661184814453126,0.15454891324043274,0.11850785464048386,0.00366519158706069
1753234923719217000,14.677216796875,0.11301007121801376,0.09896016865968704,0.16920967400074005
1753234923735192000,14.693192138671876,0.05742133408784866,0.19853121042251587,0.3683517575263977
1753234923751225900,14.709225830078125,0.042760565876960754,0.17043140530586243,0.5772676467895508
1753234923767281700,14.72528173828125,0.05375614017248154,0.06536258012056351,0.6426302194595337
1753234923783290400,14.741290283203124,0.036651913076639175,-0.11056660860776901,0.5290092825889587
1753234923799275000,14.75727490234375,0.012828170321881771,-0.37751471996307373,0.19792033731937408
1753234923815252000,14.773251953125,-0.00733038317412138,-0.5668829679489136,-0.13988813757896423
1753234923831300900,14.78930078125,-0.05253441259264946,-0.48319441080093384,-0.4404338300228119
1753234923847317500,14.8053173828125,-0.1062905490398407,-0.323147714138031,-0.5503895878791809
1753234923863303700,14.8213037109375,-0.16432274878025055,-0.2620611786842346,-0.4129449129104614
1753234923879307800,14.837307861328124,-0.2119702398777008,-0.21319197118282318,-0.09834930300712585
1753234923895339500,14.853339599609376,-0.24617868661880493,-0.17531833052635193,0.25106561183929443
1753234923911327000,14.869326904296875,-0.23640485107898712,-0.1411098688840866,0.41661009192466736
1753234923927342300,14.88534228515625,-0.2076941877603531,-0.11362093687057495,0.4453207552433014
1753234923943317200,14.901317138671875,-0.17837265133857727,-0.10384709388017654,0.3634648323059082
1753234923959399400,14.9173994140625,-0.18509216606616974,-0.07880161702632904,0.26939156651496887
1753234923975370200,14.933370361328125,-0.23396138846874237,-0.01038470957428217,0.17776179313659668
1753234923991399200,14.949399169921875,-0.29626965522766113,0.030543262138962746,0.10384709388017654
1753234924007455000,14.965455078125,-0.37629300355911255,0.09529497474431992,0.09224065393209457
1753234924023431400,14.981431396484375,-0.4502076804637909,0.18081611394882202,0.15943582355976105
1753234924039439000,14.997439208984375,-0.5088507533073425,0.10934487730264664,0.21930062770843506
1753234924055424500,15.013424560546875,-0.5290092825889587,-0.048258353024721146,0.2015855312347412
1753234924071433500,15.02943359375,-0.5736024379730225,-0.22907446324825287,0.1313360333442688
1753234924087445000,15.045445068359374,-0.6224716901779175,-0.394618958234787,0.04764748737215996
1753234924103433500,15.06143359375,-0.656069278717041,-0.35613444447517395,0.022602014243602753
1753234924119451400,15.077451416015625,-0.7000515460968018,-0.0806342139840126,0.04886921867728233
1753234924135469800,15.0934697265625,-0.7391469478607178,0.07635815441608429,0.025045474991202354
1753234924151505700,15.109505615234376,-0.7336491346359253,0.11423180252313614,-0.08429940044879913
1753234924167520500,15.1255205078125,-0.6878342628479004,0.15577064454555511,-0.19364428520202637
1753234924183494700,15.14149462890625,-0.7134906053543091,0.2223549485206604,-0.2993239760398865
1753234924199527400,15.15752734375,-0.7825183868408203,0.3023782968521118,-0.4092797040939331
1753234924215499000,15.1734990234375,-0.8515461683273315,0.32498031854629517,-0.5002986192703247
1753234924231490000,15.189489990234375,-0.8717046976089478,0.1569923609495163,-0.40133845806121826
1753234924247549400,15.205549560546874,-0.8356636762619019,-0.10323622822761536,-0.13561208546161652
1753234924263528000,15.22152783203125,-0.7538077235221863,-0.4141666293144226,0.16982053220272064
1753234924279516000,15.237515869140625,-0.6823364496231079,-0.48808133602142334,0.26939156651496887
1753234924295488000,15.253488037109374,-0.6805039048194885,-0.3292563557624817,0.13561208546161652
1753234924311526700,15.269526611328125,-0.6829473376274109,0.05803219974040985,-0.15515977144241333
1753234924327541800,15.285541748046874,-0.6969972252845764,0.503963828086853,-0.5778785347938538
1753234924343525000,15.301525146484375,-0.7519751191139221,0.6249151229858398,-0.837496280670166
1753234924359575600,15.317575439453124,-0.759305477142334,0.5326744914054871,-0.8961393237113953
1753234924375601400,15.333601318359374,-0.694553792476654,0.192422553896904,-0.7012733221054077
1753234924391607000,15.34960693359375,-0.6346889734268188,-0.027488935738801956,-0.3378084897994995
1753234924407619600,15.36561962890625,-0.5919284224510193,-0.11056660860776901,0.13744467496871948
1753234924423606800,15.381606689453125,-0.5534439086914062,-0.031154127791523933,0.45265114307403564
1753234924439640300,15.397640380859375,-0.5381723046302795,0.22113321721553802,0.6505714654922485
1753234924455615500,15.413615478515625,-0.5448917746543884,0.36163222789764404,0.6524040699005127
1753234924471648500,15.4296484375,-0.5106833577156067,0.4440990388393402,0.504574716091156
1753234924487680000,15.445679931640624,-0.4703662395477295,0.32070425152778625,0.33169981837272644
1753234924503657500,15.461657470703125,-0.40622538328170776,0.07757988572120667,0.20830504596233368
1753234924519641600,15.4776416015625,-0.3634648323059082,-0.19425514340400696,0.2119702398777008
1753234924535615500,15.493615478515625,-0.35674530267715454,-0.2883284091949463,0.3072652220726013
1753234924551620000,15.5096201171875,-0.3549126982688904,-0.30970868468284607,0.40744712948799133
1753234924567639000,15.52563916015625,-0.33047810196876526,-0.2064724564552307,0.43737950921058655
1753234924583632400,15.54163232421875,-0.3170390725135803,-0.06780604273080826,0.4056145250797272
1753234924599640600,15.557640625,-0.3017674386501312,0.027488935738801956,0.3439171314239502
1753234924615703800,15.573703857421876,-0.3139847218990326,0.08307767659425735,0.25473082065582275
1753234924631733800,15.589733642578125,-0.32620203495025635,0.04581489413976669,0.1722639948129654
1753234924647750100,15.605750244140625,-0.29565876722335815,-0.06291911751031876,0.07941248267889023
1753234924663730700,15.621730712890624,-0.182648703455925,-0.15393804013729095,-0.03726277872920036
1753234924679771100,15.637771240234375,-0.0403171069920063,-0.19547687470912933,-0.14416420459747314
1753234924695743700,15.65374365234375,0.09040805697441101,-0.21441370248794556,-0.30482175946235657
1753234924711732200,15.669732177734375,0.08735372871160507,-0.1417207419872284,-0.4031710624694824
1753234924727790600,15.68579052734375,-0.001832595793530345,0.07391469180583954,-0.2474004179239273
1753234924743775200,15.701775146484374,-0.09224065393209457,0.30115658044815063,0.14416420459747314
1753234924759765800,15.717765869140624,-0.18631389737129211,0.34086281061172485,0.598647952079773
1753234924775741200,15.7337412109375,-0.22907446324825287,0.15454891324043274,0.7770205736160278
1753234924791778300,15.7497783203125,-0.27000242471694946,-0.06780604273080826,0.7000515460968018
1753234924807794200,15.765794189453125,-0.303600013256073,-0.3683517575263977,0.3237585723400116
1753234924823769300,15.781769287109375,-0.35063666105270386,-0.4337143301963806,-0.16493362188339233
1753234924839753500,15.79775341796875,-0.40744712948799133,-0.16554448008537292,-0.646906316280365
1753234924855775200,15.813775146484375,-0.4660901725292206,0.1258382350206375,-0.8283332586288452
1753234924871784200,15.8297841796875,-0.5155702829360962,0.39706242084503174,-0.7519751191139221
1753234924887800800,15.84580078125,-0.5436700582504272,0.47219884395599365,-0.5455026626586914
1753234924903784700,15.86178466796875,-0.5564982295036316,0.3029891550540924,-0.3090978264808655
1753234924919839500,15.877839599609375,-0.5662720799446106,0.015882495790719986,-0.02382374368607998
1753234924935827000,15.893826904296875,-0.5577199459075928,-0.17104226350784302,0.21013765037059784
1753234924951858000,15.90985791015625,-0.5204572081565857,-0.2565633952617645,0.4184426963329315
1753234924967919900,15.925919921875,-0.4440990388393402,-0.26633724570274353,0.5100724697113037
1753234924983896600,15.941896484375,-0.4282165467739105,-0.2382374405860901,0.5326744914054871
1753234924999886300,15.95788623046875,-0.49357911944389343,-0.12889257073402405,0.49357911944389343
1753234925015859700,15.973859619140624,-0.5943718552589417,0.0012217304902151227,0.4502076804637909
1753234925031874800,15.989874755859375,-0.6860016584396362,0.05803219974040985,0.45875978469848633
1753234925047894000,16.00589404296875,-0.7666358947753906,-0.056810468435287476,0.4899139404296875
1753234925063878100,16.021878173828124,-0.837496280670166,-0.36102136969566345,0.4599815309047699
1753234925079887600,16.0378876953125,-0.8594874143600464,-0.5064072608947754,0.44654250144958496
1753234925095923500,16.05392333984375,-0.8881980776786804,-0.5693264007568359,0.4440990388393402
1753234925111977500,16.0699775390625,-0.9162978529930115,-0.5693264007568359,0.39584067463874817
1753234925127974400,16.085974365234375,-0.9334021210670471,-0.4447098970413208,0.29016098380088806
1753234925143968000,16.101968017578123,-0.9492846131324768,-0.3066543638706207,0.2015855312347412
1753234925175988200,16.13398828125,-0.949895441532135,0.09896016865968704,0.045204028487205505
1753234925191979000,16.14997900390625,-1.0122036933898926,0.36102136969566345,-0.05497787147760391
1753234925208036400,16.166036376953127,-1.1533136367797852,0.4605923891067505,-0.21074850857257843
1753234925224050700,16.18205078125,-1.2687671184539795,0.3836233615875244,-0.34758231043815613
1753234925240041500,16.19804150390625,-1.302364706993103,0.07391469180583954,-0.43737950921058655
1753234925256018700,16.214018798828125,-1.2431107759475708,-0.304210901260376,-0.40194934606552124
1753234925272060400,16.230060302734376,-1.1227703094482422,-0.7385360598564148,-0.33108896017074585
1753234925288078300,16.246078369140626,-1.0201449394226074,-0.8387179970741272,-0.3084869384765625
1753234925304061700,16.262061767578125,-0.9443976879119873,-0.6426302194595337,-0.39584067463874817
1753234925320061700,16.278061767578127,-0.8857545852661133,-0.33597588539123535,-0.5742133259773254
1753234925336100400,16.294100341796874,-0.827722430229187,-0.03726277872920036,-0.808174729347229
1753234925352110000,16.310110107421874,-0.7922922372817993,0.22846360504627228,-0.9627236127853394
1753234925368129500,16.326129638671876,-0.7550294399261475,0.27611109614372253,-0.8820894360542297
1753234925384123100,16.342123046875,-0.655458390712738,0.10262536257505417,-0.5760459303855896
1753234925399249700,16.357249755859375,-0.5436700582504272,-0.1014036312699318,-0.22418753802776337
1753234925415237400,16.3732373046875,-0.46181413531303406,-0.2168571650981903,0.1215621829032898
1753234925431290600,16.38929052734375,-0.43188172578811646,-0.08918632566928864,0.4495968222618103
1753234925447350000,16.40535009765625,-0.4593706727027893,0.26450464129447937,0.6401867866516113
1753234925463328300,16.421328369140625,-0.5125159621238708,0.4331034719944,0.7428121566772461
1753234925479314200,16.437314208984375,-0.5009095072746277,0.3933972120285034,0.6603453159332275
1753234925495285500,16.453285400390627,-0.4453207552433014,0.1918116807937622,0.44715335965156555
1753234925511280600,16.46928076171875,-0.4050036668777466,-0.08979719132184982,0.2565633952617645
1753234925527298000,16.485298095703126,-0.394008070230484,-0.25534167885780334,0.1368338167667389
1753234925543284500,16.501284423828125,-0.3982841372489929,-0.06963863968849182,0.17470745742321014
1753234925559274800,16.517274658203124,-0.40133845806121826,0.07696902006864548,0.36651915311813354
1753234925575302000,16.533302001953125,-0.33169981837272644,0.13866640627384186,0.6841690540313721
1753234925591343900,16.54934375,-0.27061331272125244,0.13377949595451355,0.8759807348251343
1753234925607380500,16.56538037109375,-0.2565633952617645,0.08735372871160507,0.9169087409973145
1753234925623398700,16.581398681640625,-0.26511552929878235,-0.029932396486401558,0.8142833709716797
1753234925639435500,16.597435546875,-0.2431243658065796,-0.24007004499435425,0.6194173693656921
1753234925655407600,16.61340771484375,-0.23273965716362,-0.2382374405860901,0.4349360466003418
1753234925671394600,16.62939453125,-0.18325957655906677,-0.12095131725072861,0.2669481039047241
1753234925687454200,16.6454541015625,-0.0659734457731247,0.003054326167330146,0.06108652427792549
1753234925703450600,16.66145068359375,0.031154127791523933,-0.01771509274840355,-0.16554448008537292
1753234925719441200,16.677441162109375,-0.009773843921720982,-0.1258382350206375,-0.4056145250797272
1753234925735419600,16.693419677734376,-0.13927727937698364,-0.0806342139840126,-0.4349360466003418
1753234925751456800,16.709456787109374,-0.29138273000717163,-0.018936822190880775,-0.15515977144241333
1753234925767473200,16.72547314453125,-0.37140607833862305,-0.0959058403968811,0.19547687470912933
1753234925783452700,16.74145263671875,-0.4105014503002167,-0.2919935882091522,0.45692721009254456
1753234925799444000,16.75744384765625,-0.4300491213798523,-0.43676865100860596,0.41599923372268677
1753234925815438300,16.773438232421874,-0.43127086758613586,-0.4905247986316681,0.16920967400074005
1753234925831428900,16.789428955078126,-0.44287729263305664,-0.38667771220207214,-0.24068090319633484
1753234925847445800,16.80544580078125,-0.4862487316131592,-0.17898350954055786,-0.588263213634491
1753234925863422500,16.82142236328125,-0.5729916095733643,0.08918632566928864,-0.8851437568664551
1753234925879456300,16.837456298828126,-0.6743952035903931,0.31459560990333557,-0.9486737251281738
1753234925895432200,16.85343212890625,-0.7654141783714294,0.3084869384765625,-0.7947356700897217
1753234925911488800,16.86948876953125,-0.7641924023628235,0.07330382615327835,-0.5387831330299377
1753234925927543600,16.88554345703125,-0.7257078886032104,-0.10751228034496307,-0.17592918872833252
1753234925943531500,16.901531494140624,-0.7195992469787598,-0.18081611394882202,0.1264491081237793
1753234925959520000,16.91752001953125,-0.6786713004112244,-0.2321287989616394,0.3579670190811157
1753234925975496000,16.933495849609375,-0.6352998614311218,-0.2681698501110077,0.45326200127601624
1753234925991495000,16.949494873046874,-0.6010913848876953,-0.2541199326515198,0.38117989897727966
1753234926007516700,16.9655166015625,-0.5650503635406494,-0.1765400618314743,0.182648703455925
1753234926023498200,16.981498291015626,-0.5467243790626526,-0.2119702398777008,0.03726277872920036
1753234926039488800,16.99748876953125,-0.5607742667198181,-0.4043927788734436,0.036651913076639175
1753234926055520300,17.013520263671875,-0.6059783101081848,-0.5833762884140015,0.1459967941045761
1753234926071567600,17.029567626953124,-0.6963863968849182,-0.778853178024292,0.2785545587539673
1753234926087590400,17.04559033203125,-0.7373143434524536,-0.8057312369346619,0.38667771220207214
1753234926103578000,17.061578125,-0.779464066028595,-0.7428121566772461,0.4239404797554016
1753234926135625700,17.093625732421874,-0.8350527882575989,-0.1820378452539444,0.2993239760398865
1753234926151614700,17.10961474609375,-0.8576548099517822,0.19975294172763824,0.1973094791173935
1753234926167673000,17.125673095703124,-0.8546004891395569,0.41233405470848083,0.07513642311096191
1753234926183652400,17.14165234375,-0.8747590184211731,0.6163630485534668,-0.13561208546161652
1753234926199644400,17.15764453125,-0.959669291973114,0.6432411074638367,-0.38179078698158264
1753234926215618800,17.173618896484374,-1.0751228332519531,0.403781920671463,-0.6951646208763123
1753234926231659000,17.189658935546873,-1.0616837739944458,0.12034045159816742,-0.6890559792518616
1753234926247678000,17.205677978515624,-0.9926560521125793,-0.24862214922904968,-0.3243694305419922
1753234926263659800,17.22165966796875,-0.9004153609275818,-0.7263187766075134,0.26511552929878235
1753234926279648000,17.23764794921875,-0.7360926270484924,-0.8924741148948669,0.6719517707824707
1753234926295671600,17.253671630859376,-0.5839871764183044,-0.8258898258209229,0.8063421249389648
1753234926311663900,17.269663818359376,-0.5406157374382019,-0.4605923891067505,0.5455026626586914
1753234926327682300,17.285682373046875,-0.5491678714752197,0.2675589919090271,-0.06230825558304787
1753234926343663900,17.301663818359376,-0.5845980644226074,0.6908885836601257,-0.6151412725448608
1753234926359701800,17.31770166015625,-0.5943718552589417,0.7800748944282532,-0.9657779335975647
1753234926375680500,17.333680419921876,-0.4996877610683441,0.5320636034011841,-1.0213667154312134
1753234926391718700,17.34971875,-0.41599923372268677,0.1716531366109848,-0.7464773058891296
1753234926407776800,17.36577685546875,-0.42088615894317627,-0.06291911751031876,-0.14844025671482086
1753234926423762400,17.381762451171873,-0.4190535545349121,-0.11545353382825851,0.3341432809829712
1753234926439757800,17.3977578125,-0.3732386529445648,-0.02626720629632473,0.6102544069290161
1753234926455734800,17.41373486328125,-0.33597588539123535,0.1661553531885147,0.5839871764183044
1753234926471732200,17.429732177734376,-0.28955012559890747,0.4001167416572571,0.3677408695220947
1753234926487752000,17.445751953125,-0.2926044464111328,0.394008070230484,0.08674286305904388
1753234926503735800,17.46173583984375,-0.28955012559890747,0.2724458873271942,-0.20891591906547546
1753234926519729400,17.4777294921875,-0.27488934993743896,-0.02626720629632473,-0.4092797040939331
1753234926535755500,17.493755615234374,-0.2590068578720093,-0.3445279896259308,-0.39584067463874817
1753234926551794000,17.5097939453125,-0.19058994948863983,-0.5167919993400574,-0.17470745742321014
1753234926567815000,17.52581494140625,-0.13255776464939117,-0.38240164518356323,0.17043140530586243
1753234926583793700,17.541793701171876,-0.06169738993048668,-0.09407325088977814,0.5772676467895508
1753234926599865600,17.557865478515627,-0.012217304669320583,0.11789698898792267,0.7623597979545593
1753234926615858400,17.5738583984375,0.018325956538319588,0.13316862285137177,0.7141014933586121
1753234926631883300,17.58988330078125,0.02626720629632473,0.03176499158143997,0.5277875661849976
1753234926647947300,17.605947265625,0.03726277872920036,-0.23151792585849762,0.19425514340400696
1753234926663947500,17.621947509765626,0.07452555745840073,-0.2687807083129883,-0.09162978827953339
1753234926679964000,17.6379638671875,0.11667526513338089,-0.16798794269561768,-0.3378084897994995
1753234926695946000,17.653946044921874,0.16798794269561768,0.025045474991202354,-0.6047565937042236
1753234926711992600,17.66999267578125,0.14477506279945374,0.29626965522766113,-0.7550294399261475
1753234926728013300,17.686013427734373,0.027488935738801956,0.6243042945861816,-0.6774495840072632
1753234926743999200,17.701999267578124,0.006719517521560192,0.7458664774894714,-0.32986724376678467
1753234926759996200,17.71799609375,0.06963863968849182,0.4899139404296875,0.18509216606616974
1753234926776025900,17.73402587890625,0.12950342893600464,0.12095131725072861,0.4593706727027893
1753234926792023000,17.75002294921875,0.14905111491680145,-0.2828305959701538,0.3744603991508484
1753234926808048600,17.766048583984375,0.12828169763088226,-0.46181413531303406,0.018936822190880775
1753234926824034600,17.78203466796875,0.05864306539297104,-0.45692721009254456,-0.4386012554168701
1753234926840075300,17.7980751953125,-0.03420845419168472,-0.21930062770843506,-0.931569516658783
1753234926856056300,17.814056396484375,-0.07757988572120667,-0.004886921960860491,-1.1771373748779297
1753234926872117200,17.8301171875,-0.10873401165008545,0.1411098688840866,-1.1508700847625732
1753234926888181500,17.846181396484376,-0.11667526513338089,0.12950342893600464,-0.8839219808578491
1753234926904172500,17.862172607421876,-0.12034045159816742,-0.0861319974064827,-0.4349360466003418
1753234926920189200,17.878189208984374,-0.01466076634824276,-0.3549126982688904,-0.015271631069481373
1753234926936181000,17.894180908203126,0.11423180252313614,-0.4954117238521576,0.40683624148368835
1753234926952184600,17.9101845703125,0.11423180252313614,-0.38728857040405273,0.6065891981124878
1753234926968208600,17.926208740234376,0.08735372871160507,-0.152105450630188,0.6004805564880371
1753234926984193300,17.942193359375,0.05925392732024193,0.0757472887635231,0.42577308416366577
1753234927000187400,17.9581875,0.07513642311096191,0.07757988572120667,0.22479841113090515
1753234927016216300,17.97421630859375,0.1264491081237793,-0.08979719132184982,0.09651670604944229
1753234927032256500,17.990256591796875,0.13988813757896423,-0.28099802136421204,0.23640485107898712
1753234927048278300,18.0062783203125,0.08491026610136032,-0.475253164768219,0.5864306092262268
1753234927064257800,18.0222578125,-0.00855211354792118,-0.5345070958137512,0.7959573864936829
1753234927080308000,18.038307861328125,-0.07208210229873657,-0.5766568183898926,0.7733554244041443
1753234927096303000,18.05430322265625,-0.11301007121801376,-0.5418374538421631,0.5876523852348328
1753234927112344600,18.070344482421874,-0.19058994948863983,-0.35613444447517395,0.342695415019989
1753234927128386600,18.086386474609377,-0.2883284091949463,-0.17470745742321014,0.08185594528913498
1753234927144370200,18.1023701171875,-0.30970868468284607,-0.060475658625364304,0.03481931984424591
1753234927160365300,18.118365234375,-0.28955012559890747,0.0354301854968071,0.15821409225463867
1753234927176341000,18.134341064453125,-0.41172316670417786,0.17592918872833252,0.22479841113090515
1753234927192379400,18.15037939453125,-0.5968153476715088,0.3335324227809906,0.09957103431224823
1753234927208395800,18.166395751953125,-0.7739662528038025,0.26633724570274353,-0.23090706765651703
1753234927224379000,18.18237890625,-0.8472700715065002,0.05497787147760391,-0.5577199459075928
1753234927240374500,18.19837451171875,-0.7275404930114746,-0.09957103431224823,-0.47342056035995483
1753234927256401700,18.214401611328125,-0.617584764957428,-0.2474004179239273,-0.22846360504627228
1753234927272394200,18.230394287109377,-0.484416127204895,-0.36163222789764404,0.10751228034496307
1753234927288413200,18.2464130859375,-0.3396410644054413,-0.3677408695220947,0.3084869384765625
1753234927304390100,18.26239013671875,-0.23335053026676178,-0.3738495409488678,0.30970868468284607
1753234927320477700,18.278477783203126,-0.1875356286764145,-0.26083946228027344,0.048258353024721146
1753234927336455400,18.294455322265627,-0.18875735998153687,0.02382374368607998,-0.44226643443107605
1753234927352518000,18.310517822265624,-0.18081611394882202,0.23273965716362,-0.7825183868408203
1753234927368580400,18.326580322265624,-0.15027284622192383,0.2638937830924988,-0.8381071090698242
1753234927384578800,18.342578857421874,-0.11789698898792267,0.11789698898792267,-0.6108652353286743
1753234927400592600,18.358592529296875,-0.05619960278272629,-0.036651913076639175,-0.2431243658065796
1753234927416590300,18.37459033203125,0.04703662544488907,-0.10262536257505417,0.20036379992961884
1753234927432589000,18.390589111328126,0.09529497474431992,0.059864792972803116,0.5015203952789307
1753234927448606700,18.406606689453124,0.07757988572120667,0.3335324227809906,0.684779942035675
1753234927464587000,18.4225869140625,0.03787364438176155,0.484416127204895,0.6774495840072632
1753234927480577800,18.438577880859373,0.03726277872920036,0.5412266254425049,0.5064072608947754
1753234927496603100,18.45460302734375,0.08002334833145142,0.3995058834552765,0.31581732630729675
1753234927512640000,18.470639892578124,0.10751228034496307,0.06902777403593063,0.13255776464939117
1753234927528687600,18.4866875,0.1264491081237793,-0.1270599663257599,0.02626720629632473
1753234927544666000,18.502666015625,0.17959438264369965,-0.12217304855585098,-0.00427605677396059
1753234927560705000,18.518705078125,0.19608774781227112,0.12217304855585098,0.16004669666290283
1753234927576684300,18.534684326171874,0.1508837193250656,0.4593706727027893,0.4404338300228119
1753234927592677400,18.550677490234374,0.15393804013729095,0.6505714654922485,0.6982190012931824
1753234927608697900,18.56669775390625,0.2064724564552307,0.5473352670669556,0.7165449261665344
1753234927624679400,18.582679443359375,0.26511552929878235,0.1160643994808197,0.4899139404296875
1753234927656658700,18.61465869140625,0.4862487316131592,-0.1973094791173935,-0.0507018156349659
1753234927672702500,18.630702392578126,0.5522221922874451,-0.1215621829032898,-0.16065755486488342
1753234927688723700,18.6467236328125,0.6114761233329773,-0.07269296050071716,-0.3084869384765625
1753234927704703500,18.662703369140626,0.5827654600143433,-0.05253441259264946,-0.5546656250953674
1753234927720694800,18.67869482421875,0.47342056035995483,0.09407325088977814,-0.7104362845420837
1753234927736727800,18.694727783203124,0.28955012559890747,0.32009339332580566,-0.6481280326843262
1753234927752721200,18.71072119140625,0.17898350954055786,0.32498031854629517,-0.34208452701568604
1753234927768771600,18.726771484375,0.12950342893600464,0.12767083942890167,0.1716531366109848
1753234927784750600,18.74275048828125,0.08918632566928864,-0.1007927656173706,0.4440990388393402
1753234927800789800,18.758789794921874,0.07635815441608429,-0.3127630054950714,0.36529740691185
1753234927816768000,18.77476806640625,0.0959058403968811,-0.3500257730484009,0.024434609338641167
1753234927832844300,18.79084423828125,0.1111774742603302,-0.242513507604599,-0.3530801236629486
1753234927848911400,18.806911376953124,0.08674286305904388,0.036651913076639175,-0.6035348773002625
1753234927864939800,18.822939697265625,0.04886921867728233,0.2987131178379059,-0.5852088928222656
1753234927881006800,18.8390068359375,-0.0006108652451075613,0.30482175946235657,-0.40744712948799133
1753234927897001700,18.855001708984375,-0.0006108652451075613,0.07452555745840073,-0.22052235901355743
1753234927913001200,18.871001220703125,0.04886921867728233,-0.192422553896904,0.02626720629632473
1753234927929021200,18.887021240234375,0.0757472887635231,-0.2718350291252136,0.242513507604599
1753234927945002800,18.903002685546873,0.04948008432984352,-0.26511552929878235,0.4190535545349121
1753234927960995600,18.91899560546875,0.028099801391363144,-0.14049901068210602,0.5125159621238708
1753234927977019600,18.93501953125,0.02076941914856434,-0.036651913076639175,0.5216789245605469
1753234927993058300,18.951058349609376,0.021380282938480377,0.00855211354792118,0.41233405470848083
1753234928009077000,18.967076904296874,0.015882495790719986,-0.025045474991202354,0.2840523421764374
1753234928025056500,18.983056396484375,-0.014049900695681572,-0.09040805697441101,0.23945917189121246
1753234928041097000,18.999096923828127,-0.07208210229873657,-0.23151792585849762,0.32681289315223694
1753234928057082600,19.01508251953125,-0.13255776464939117,-0.4355469346046448,0.4098905920982361
1753234928073126700,19.031126708984374,-0.17470745742321014,-0.5241223573684692,0.4550946056842804
1753234928089191000,19.04719091796875,-0.23396138846874237,-0.4642575979232788,0.4538728892803192
1753234928105208600,19.06320849609375,-0.26083946228027344,-0.22479841113090515,0.3799581825733185
1753234928121206800,19.079206787109374,-0.2767219543457031,0.02321287989616394,0.2626720666885376
1753234928137184000,19.09518408203125,-0.22846360504627228,0.19486601650714874,0.10201449692249298
1753234928153228800,19.111228759765623,-0.1869247704744339,0.2168571650981903,-0.048258353024721146
1753234928169244700,19.12724462890625,-0.24007004499435425,0.15821409225463867,-0.22968533635139465
1753234928185224200,19.14322412109375,-0.35124751925468445,0.1875356286764145,-0.4202753007411957
1753234928201213400,19.15921337890625,-0.47769662737846375,0.2638937830924988,-0.6438519954681396
1753234928217235000,19.17523486328125,-0.5149593949317932,0.23396138846874237,-0.7024950385093689
1753234928233227300,19.191227294921877,-0.4447098970413208,-0.02076941914856434,-0.4911356568336487
1753234928249247200,19.207247314453124,-0.3237585723400116,-0.31581732630729675,-0.18631389737129211
1753234928265225700,19.223225830078125,-0.1918116807937622,-0.4147774875164032,0.11789698898792267
1753234928281260000,19.239260009765626,-0.08002334833145142,-0.3139847218990326,0.31154128909111023
1753234928297234400,19.255234375,-0.0354301854968071,-0.1264491081237793,0.2119702398777008
1753234928313268700,19.271268798828125,-0.04642575979232788,0.10690141469240189,-0.1722639948129654
1753234928329327000,19.2873271484375,-0.07635815441608429,0.2871066629886627,-0.5791002511978149
1753234928345352000,19.30335205078125,-0.11301007121801376,0.4050036668777466,-0.8912523984909058
1753234928361343200,19.31934326171875,-0.10995574295520782,0.3732386529445648,-0.8991936445236206
1753234928377336000,19.335336181640624,-0.04581489413976669,0.22968533635139465,-0.6212499737739563
1753234928393347000,19.35134716796875,0.01160643994808197,0.18997909128665924,-0.21074850857257843
1753234928409364000,19.367364013671875,0.018936822190880775,0.29077184200286865,0.2528982162475586
1753234928425357000,19.383357177734375,0.00855211354792118,0.3830125033855438,0.6517932415008545
1753234928441348400,19.399348388671875,0.03726277872920036,0.36651915311813354,0.789237916469574
1753234928457376000,19.4153759765625,0.06658431142568588,0.24190263450145721,0.7244861721992493
1753234928473414400,19.431414306640626,0.10018189996480942,0.06902777403593063,0.513126790523529
1753234928489404700,19.44740478515625,0.12522737681865692,-0.28099802136421204,0.1918116807937622
1753234928505386800,19.46338671875,0.182648703455925,-0.5681046843528748,0.05314527451992035
1753234928521421000,19.479421142578126,0.19914206862449646,-0.6921103000640869,0.09651670604944229
1753234928537395000,19.49539501953125,0.18020524084568024,-0.5271766781806946,0.23029619455337524
1753234928553433300,19.511433349609376,0.13927727937698364,-0.2272418737411499,0.4043927788734436
1753234928569491000,19.527490966796876,0.06841690838336945,0.09285151958465576,0.5387831330299377
1753234928585497300,19.543497314453123,0.04703662544488907,0.1722639948129654,0.4960225820541382
1753234928601504000,19.55950390625,0.11850785464048386,0.15515977144241333,0.304210901260376
1753234928617477600,19.5754775390625,0.22968533635139465,0.0507018156349659,0.13011430203914642
1753234928633517600,19.591517578125,0.3488040566444397,-0.001832595793530345,-0.015882495790719986
1753234928649539800,19.607539794921873,0.46853363513946533,-0.004886921960860491,-0.051312681287527084
1753234928665539600,19.62353955078125,0.5907067060470581,-0.06963863968849182,-0.11545353382825851
1753234928681532700,19.63953271484375,0.6401867866516113,-0.16920967400074005,-0.24984388053417206
1753234928697554200,19.65555419921875,0.5717698931694031,-0.1258382350206375,-0.4001167416572571
1753234928713566500,19.67156640625,0.4050036668777466,0.1716531366109848,-0.35735616087913513
1753234928729583600,19.68758349609375,0.2938261926174164,0.3830125033855438,0.003054326167330146
1753234928745565200,19.703565185546875,0.25595253705978394,0.2889392673969269,0.5400048494338989
