time,seconds_elapsed,z,y,x
1753234909088208400,0.04620849609375,11.111490249633789,0.8044517636299133,0.38546648621559143
1753234909104286500,0.062286376953125,10.431536674499512,1.1444283723831177,0.31124621629714966
1753234909120305000,0.078304931640625,9.469067573547363,1.5634137392044067,0.24660277366638184
1753234909136279800,0.09427978515625,8.89685344696045,1.5083470344543457,0.2059013396501541
1753234909152289300,0.110289306640625,8.901641845703125,1.4053963422775269,0.3734954595565796
1753234909168281300,0.12628125,9.282320022583008,1.3479355573654175,0.7134721279144287
1753234909184345900,0.142345947265625,9.627084732055664,1.2425906658172607,0.7565677165985107
1753234909200330200,0.158330322265625,10.036493301391602,1.256955862045288,0.7086837291717529
1753234909216311600,0.1743115234375,10.046070098876953,1.316810965538025,0.49320554733276367
1753234909232321300,0.1903212890625,9.909601211547852,1.2689268589019775,0.12210428714752197
1753234909248360200,0.206360107421875,10.11550235748291,1.2713210582733154,0.20111294090747833
1753234909264461000,0.2224609375,10.163386344909668,1.3215993642807007,0.689530074596405
1753234909280444700,0.238444580078125,9.919178009033203,1.259350061416626,0.950498104095459
1753234909296468000,0.254468017578125,9.72285270690918,1.3407529592514038,0.9193734526634216
1753234909312479700,0.270479736328125,9.72285270690918,1.3958195447921753,0.6200982332229614
1753234909328515800,0.286515869140625,9.68933391571045,1.158793568611145,0.5219359993934631
1753234909344573200,0.3025732421875,9.509769439697266,1.2880805730819702,0.30885201692581177
1753234909360599600,0.318599609375,9.423578262329102,1.3431471586227417,0.1149216815829277
1753234909376577800,0.334577880859375,9.557653427124023,1.2473790645599365,0.17717093229293823
1753234909392587300,0.350587158203125,9.837775230407715,1.316810965538025,0.4908113479614258
1753234909408577000,0.366576904296875,10.120290756225586,1.235408067703247,0.7565677165985107
1753234909424682800,0.382682861328125,10.189722061157227,1.1085153818130493,0.6272808313369751
1753234909440664600,0.39866455078125,9.890447616577148,1.139639973640442,0.4189853072166443
1753234909456644000,0.41464404296875,9.38048267364502,1.3527239561080933,0.2992752194404602
1753234909472654600,0.430654541015625,9.251194953918457,1.5059528350830078,0.4884171485900879
1753234909488696800,0.44669677734375,9.780313491821289,1.4173674583435059,0.4908113479614258
1753234909504755200,0.462755126953125,10.163386344909668,1.2090718746185303,0.45489832758903503
1753234909520741000,0.4787412109375,10.182539939880371,1.1659762859344482,0.3902548849582672
1753234909536766500,0.494766357421875,9.93593692779541,1.2042834758758545,0.4118026793003082
1753234909552780800,0.51078076171875,9.579200744628906,1.3551181554794312,0.5602431893348694
1753234909568773400,0.5267734375,9.53849983215332,1.3766659498214722,0.6368576288223267
1753234909584876800,0.542876708984375,9.75637149810791,1.3192051649093628,0.5722141861915588
1753234909600901000,0.558901123046875,10.086771965026855,1.173158884048462,0.5626373887062073
1753234909616881200,0.574881103515625,10.113107681274414,1.2042834758758545,0.33039984107017517
1753234909632891100,0.59089111328125,9.840168952941895,1.259350061416626,0.27054479718208313
1753234909648883000,0.606883056640625,9.605537414550781,1.259350061416626,0.524330198764801
1753234909664942300,0.6229423828125,9.375694274902344,1.2617442607879639,0.6847416758537292
1753234909680925200,0.63892529296875,9.378087997436523,1.314416766166687,0.6200982332229614
1753234909696905200,0.6549052734375,9.84495735168457,1.3000515699386597,0.47165772318840027
1753234909712915500,0.67091552734375,10.314221382141113,1.235408067703247,0.45010992884635925
1753234909728951600,0.68695166015625,10.460267066955566,1.259350061416626,0.304063618183136
1753234909745054500,0.703054443359375,9.976638793945312,1.194706678390503,0.4213795065879822
1753234909761040600,0.71904052734375,9.533711433410645,1.3192051649093628,0.45010992884635925
1753234909777066000,0.73506591796875,9.41639518737793,1.381454348564148,0.40462008118629456
1753234909793076500,0.751076416015625,9.720458984375,1.3623007535934448,0.3471592366695404
1753234909809065200,0.767065185546875,9.837775230407715,1.2856862545013428,0.49320554733276367
1753234909825122800,0.783122802734375,9.66539192199707,1.1994950771331787,0.5291185975074768
1753234909841148700,0.799148681640625,9.378087997436523,1.1563993692398071,0.5315127968788147
1753234909857173200,0.81517333984375,9.246406555175781,1.213860273361206,0.4572925269603729
1753234909873185000,0.83118505859375,9.526528358459473,1.1971008777618408,0.4668693244457245
1753234909889178000,0.84717822265625,10.127472877502441,1.314416766166687,0.6105214357376099
1753234909905284900,0.863284912109375,10.493785858154297,1.3072341680526733,0.5147533416748047
1753234909921271600,0.879271484375,10.362105369567871,1.2641384601593018,0.45010992884635925
1753234909937254100,0.895254150390625,9.955090522766113,1.316810965538025,0.3878606855869293
1753234909953268700,0.911268798828125,9.658209800720215,1.314416766166687,0.43335050344467163
1753234909969311000,0.92731103515625,9.864110946655273,1.359906554222107,0.3974374830722809
1753234909985373400,0.94337353515625,10.144232749938965,1.314416766166687,0.5099649429321289
1753234910001361700,0.959361572265625,10.096348762512207,1.2617442607879639,0.7038952708244324
1753234910017392400,0.975392333984375,9.801861763000488,1.2425906658172607,0.5722141861915588
1753234910033404400,0.991404296875,9.435548782348633,1.2306196689605713,0.40462008118629456
1753234910049392000,1.00739208984375,9.397241592407227,1.3527239561080933,0.3064578175544739
1753234910065492000,1.023491943359375,9.560047149658203,1.2234370708465576,0.44771572947502136
1753234910081515500,1.039515625,9.732429504394531,1.1492167711257935,0.4836287498474121
1753234910097495300,1.055495361328125,9.667786598205566,1.170764684677124,0.5889736413955688
1753234910113507000,1.071507080078125,9.59835433959961,1.2545616626739502,0.5602431893348694
1753234910129497600,1.08749755859375,9.66299819946289,1.3311761617660522,0.33279404044151306
1753234910145560300,1.103560302734375,9.792284965515137,1.2641384601593018,0.2513911724090576
1753234910161541600,1.119541748046875,9.928754806518555,1.3766659498214722,0.363918662071228
1753234910177519000,1.13551904296875,9.93593692779541,1.335964560508728,0.5147533416748047
1753234910193523700,1.151523681640625,9.880870819091797,1.259350061416626,0.6105214357376099
1753234910209554200,1.16755419921875,9.93354320526123,1.2665326595306396,0.5363011956214905
1753234910225655800,1.18365576171875,9.888052940368652,1.2832920551300049,0.3280056416988373
1753234910241637400,1.199637451171875,9.883264541625977,1.335964560508728,0.3495534360408783
1753234910257659400,1.215659423828125,9.818621635437012,1.2713210582733154,0.3758896589279175
1753234910273670700,1.231670654296875,9.749189376831055,1.2210428714752197,0.4572925269603729
1753234910289659400,1.247659423828125,9.634267807006836,1.1875240802764893,0.5434837937355042
1753234910305718800,1.26371875,9.68933391571045,1.194706678390503,0.5985504388809204
1753234910321747700,1.279747802734375,9.852140426635742,1.235408067703247,0.49799394607543945
1753234910337730600,1.29573046875,9.765948295593262,1.280897855758667,0.40222588181495667
1753234910353742800,1.311742919921875,9.68933391571045,1.2976573705673218,0.33997663855552673
1753234910369735200,1.327735107421875,9.739612579345703,1.235408067703247,0.33997663855552673
1753234910385845800,1.343845703125,9.80904483795166,1.2737152576446533,0.35673606395721436
1753234910401828400,1.359828369140625,9.837775230407715,1.2665326595306396,0.4189853072166443
1753234910417808600,1.37580859375,9.907206535339355,1.3263877630233765,0.4836287498474121
1753234910433821200,1.3918212890625,9.950302124023438,1.3024457693099976,0.47644615173339844
1753234910449863000,1.40786279296875,9.818621635437012,1.278503656387329,0.49799394607543945
1753234910465920800,1.423920654296875,9.691728591918945,1.2401964664459229,0.5051765441894531
1753234910481906700,1.43990673828125,9.63187313079834,1.1851298809051514,0.4213795065879822
1753234910497930500,1.455930419921875,9.746794700622559,1.256955862045288,0.40701428055763245
1753234910513941000,1.47194091796875,9.885659217834473,1.335964560508728,0.5171475410461426
1753234910529933300,1.487933349609375,9.923966407775879,1.2449848651885986,0.4812345504760742
1753234910546036500,1.504036376953125,9.876082420349121,1.1779472827911377,0.3926490843296051
1753234910562063600,1.520063720703125,9.823410034179688,1.2282254695892334,0.33039984107017517
1753234910578045400,1.53604541015625,9.871294021606445,1.2521674633026123,0.2106897532939911
1753234910594058200,1.552058349609375,9.904812812805176,1.2976573705673218,0.3064578175544739
1753234910610051000,1.568051025390625,9.888052940368652,1.381454348564148,0.5889736413955688
1753234910626113800,1.58411376953125,9.892841339111328,1.278503656387329,0.5722141861915588
1753234910642099700,1.600099609375,9.952696800231934,1.2018892765045166,0.47165772318840027
1753234910658081300,1.616081298828125,9.998186111450195,1.1827356815338135,0.31842881441116333
1753234910674096000,1.63209619140625,9.895236015319824,1.2401964664459229,0.28730419278144836
1753234910690137300,1.648137451171875,9.761159896850586,1.3024457693099976,0.3998316824436188
1753234910706245000,1.6642451171875,9.586383819580078,1.2665326595306396,0.49559974670410156
1753234910722263300,1.68026318359375,9.493009567260742,1.1971008777618408,0.5315127968788147
1753234910738290700,1.696290771484375,9.557653427124023,1.1252747774124146,0.5363011956214905
1753234910754301200,1.71230126953125,9.593565940856934,1.139639973640442,0.3711012601852417
1753234910770292500,1.72829248046875,9.636661529541016,1.1899182796478271,0.19393034279346466
1753234910786351600,1.7443515625,9.708487510681152,1.3215993642807007,0.2106897532939911
1753234910802379500,1.760379638671875,9.892841339111328,1.3527239561080933,0.35673606395721436
1753234910818391800,1.776391845703125,10.029311180114746,1.3766659498214722,0.5339069962501526
1753234910834410000,1.792409912109375,10.038887977600098,1.2641384601593018,0.5315127968788147
1753234910850406400,1.808406494140625,9.979032516479492,1.2306196689605713,0.38546648621559143
1753234910866515700,1.824515625,9.677363395690918,1.357512354850769,0.3687070608139038
1753234910882504200,1.840504150390625,9.548076629638672,1.2761094570159912,0.35913026332855225
1753234910898484700,1.856484619140625,9.674968719482422,1.2521674633026123,0.4357447028160095
1753234910914543000,1.872543212890625,9.93354320526123,1.2761094570159912,0.5291185975074768
1753234910930587400,1.88858740234375,10.050858497619629,1.2449848651885986,0.5027823448181152
1753234910946651100,1.904651123046875,9.938331604003906,1.2737152576446533,0.47405192255973816
1753234910962635300,1.92063525390625,9.651026725769043,1.316810965538025,0.30885201692581177
1753234910978659300,1.936659423828125,9.44991397857666,1.3335703611373901,0.24660277366638184
1753234910994719000,1.952718994140625,9.366117477416992,1.3862427473068237,0.28730419278144836
1753234911010709800,1.968709716796875,9.569623947143555,1.314416766166687,0.2849099934101105
1753234911026812200,1.984812255859375,9.888052940368652,1.2737152576446533,0.3926490843296051
1753234911042840000,2.000840087890625,10.137049674987793,1.237802267074585,0.3495534360408783
1753234911058822100,2.016822265625,10.108319282531738,1.2617442607879639,0.4165911078453064
1753234911074837200,2.032837158203125,9.737217903137207,1.3311761617660522,0.37828385829925537
1753234911090832400,2.048832275390625,9.469067573547363,1.381454348564148,0.36152446269989014
1753234911106900500,2.064900390625,9.53849983215332,1.4077905416488647,0.33279404044151306
1753234911122886000,2.080885986328125,9.926360130310059,1.3455413579940796,0.33758243918418884
1753234911138867500,2.096867431640625,10.105925559997559,1.2689268589019775,0.40222588181495667
1753234911154880500,2.112880615234375,9.983820915222168,1.3024457693099976,0.37828385829925537
1753234911170921200,2.128921142578125,9.751583099365234,1.3742717504501343,0.3663128614425659
1753234911187022300,2.145022216796875,9.552865028381348,1.37906014919281,0.4405331015586853
1753234911203048400,2.16104833984375,9.653421401977539,1.4101848602294922,0.4620809257030487
1753234911219076400,2.177076416015625,9.976638793945312,1.3239935636520386,0.42856210470199585
1753234911235089000,2.1930888671875,10.098742485046387,1.3407529592514038,0.35913026332855225
1753234911251083000,2.2090830078125,9.983820915222168,1.3982137441635132,0.30885201692581177
1753234911267140000,2.22514013671875,9.737217903137207,1.3694833517074585,0.31364041566848755
1753234911283164200,2.2411640625,9.50498104095459,1.403002142906189,0.3663128614425659
1753234911299171300,2.25717138671875,9.600749015808105,1.4101848602294922,0.33279404044151306
1753234911315181300,2.273181396484375,9.955090522766113,1.3120225667953491,0.3902548849582672
1753234911331171600,2.289171630859375,10.232817649841309,1.290474772453308,0.35673606395721436
1753234911347279600,2.305279541015625,10.113107681274414,1.3694833517074585,0.3232172429561615
1753234911363264000,2.321263916015625,9.710882186889648,1.3694833517074585,0.35913026332855225
1753234911379242800,2.33724267578125,9.289502143859863,1.3048399686813354,0.38546648621559143
1753234911395256600,2.353256591796875,9.191340446472168,1.3072341680526733,0.28730419278144836
1753234911411297800,2.3692978515625,9.421183586120605,1.2497732639312744,0.2944868206977844
1753234911427362800,2.38536279296875,9.856928825378418,1.2880805730819702,0.35913026332855225
1753234911443352800,2.401352783203125,10.182539939880371,1.3263877630233765,0.17717093229293823
1753234911459382000,2.417382080078125,10.110713958740234,1.3934253454208374,0.2346317619085312
1753234911475396400,2.433396240234375,9.84256362915039,1.4245500564575195,0.28969839215278625
1753234911491395600,2.4493955078125,9.641449928283691,1.4053963422775269,0.33758243918418884
1753234911507503000,2.465503173828125,9.696516990661621,1.3694833517074585,0.33518823981285095
1753234911523536100,2.4815361328125,9.96945571899414,1.256955862045288,0.3519476354122162
1753234911539519500,2.49751953125,10.091560363769531,1.2713210582733154,0.45250412821769714
1753234911555535000,2.51353515625,9.876082420349121,1.3766659498214722,0.3734954595565796
1753234911571528400,2.529528564453125,9.550470352172852,1.3910311460494995,0.2944868206977844
1753234911587544800,2.545544921875,9.514557838439941,1.3958195447921753,0.3280056416988373
1753234911603527400,2.56152734375,9.624691009521484,1.3263877630233765,0.4572925269603729
1753234911619508500,2.577508544921875,9.742006301879883,1.2832920551300049,0.45010992884635925
1753234911635519500,2.59351953125,9.775525093078613,1.3263877630233765,0.3016694188117981
1753234911651562200,2.609562255859375,9.794678688049316,1.3431471586227417,0.26815059781074524
1753234911667621400,2.625621337890625,9.768342971801758,1.3335703611373901,0.2992752194404602
1753234911683629000,2.641629150390625,9.806650161743164,1.3239935636520386,0.19393034279346466
1753234911699657200,2.6576572265625,9.86889934539795,1.3239935636520386,0.29209262132644653
1753234911715670300,2.673670166015625,9.911994934082031,1.3072341680526733,0.3471592366695404
1753234911731666200,2.689666259765625,9.818621635437012,1.3862427473068237,0.35434186458587646
1753234911747728000,2.705727783203125,9.708487510681152,1.4413094520568848,0.33279404044151306
1753234911763759400,2.72175927734375,9.696516990661621,1.3862427473068237,0.40940847992897034
1753234911779773200,2.737773193359375,9.742006301879883,1.3000515699386597,0.3687070608139038
1753234911795787800,2.753787841796875,9.804255485534668,1.2832920551300049,0.26096799969673157
1753234911811781400,2.769781494140625,9.919178009033203,1.2449848651885986,0.3208230137825012
1753234911827889000,2.785888916015625,9.8784761428833,1.2665326595306396,0.3016694188117981
1753234911843875300,2.801875244140625,9.651026725769043,1.4077905416488647,0.2322375625371933
1753234911859860000,2.81785986328125,9.461885452270508,1.3766659498214722,0.3447650372982025
1753234911875875300,2.833875244140625,9.545681953430176,1.3527239561080933,0.37828385829925537
1753234911891920100,2.849920166015625,9.75637149810791,1.3096283674240112,0.272938996553421
1753234911907985200,2.865985107421875,9.9000244140625,1.2258312702178955,0.3256114423274994
1753234911923977500,2.8819775390625,9.90241813659668,1.2330138683319092,0.4668693244457245
1753234911940012500,2.898012451171875,9.832986831665039,1.3527239561080933,0.4118026793003082
1753234911956029400,2.914029541015625,9.78989028930664,1.41257905960083,0.3974374830722809
1753234911972031700,2.93003173828125,9.758766174316406,1.3407529592514038,0.3734954595565796
1753234911988137700,2.9461376953125,9.787496566772461,1.3910311460494995,0.26815059781074524
1753234912004166700,2.962166748046875,9.885659217834473,1.3527239561080933,0.2944868206977844
1753234912020149800,2.978149658203125,9.880870819091797,1.2856862545013428,0.4165911078453064
1753234912036161300,2.994161376953125,9.86650562286377,1.3527239561080933,0.45250412821769714
1753234912052156700,3.01015673828125,9.648633003234863,1.3838485479354858,0.3663128614425659
1753234912068222700,3.02622265625,9.545681953430176,1.3431471586227417,0.3878606855869293
1753234912084211500,3.04221142578125,9.615114212036133,1.3192051649093628,0.33039984107017517
1753234912100192000,3.05819189453125,9.758766174316406,1.278503656387329,0.22026655077934265
1753234912116203500,3.07420361328125,9.852140426635742,1.2761094570159912,0.2537853717803955
1753234912132245200,3.090245361328125,9.871294021606445,1.3215993642807007,0.2849099934101105
1753234912148350500,3.1063505859375,9.854534149169922,1.3335703611373901,0.3926490843296051
1753234912164363000,3.122363037109375,9.780313491821289,1.3694833517074585,0.4381389021873474
1753234912180388600,3.138388671875,9.765948295593262,1.3718775510787964,0.40222588181495667
1753234912196400600,3.154400634765625,9.75397777557373,1.3934253454208374,0.29209262132644653
1753234912212404200,3.170404296875,9.75397777557373,1.3670891523361206,0.3471592366695404
1753234912228464000,3.186464111328125,9.80904483795166,1.3263877630233765,0.4692635238170624
1753234912244490800,3.20249072265625,9.871294021606445,1.290474772453308,0.37828385829925537
1753234912260499500,3.21849951171875,9.86889934539795,1.3048399686813354,0.2944868206977844
1753234912276510700,3.2345107421875,9.897629737854004,1.2976573705673218,0.3232172429561615
1753234912292500500,3.25050048828125,9.832986831665039,1.2976573705673218,0.4405331015586853
1753234912308608500,3.2666083984375,9.696516990661621,1.3048399686813354,0.42856210470199585
1753234912324596000,3.282595947265625,9.607931137084961,1.3335703611373901,0.3711012601852417
1753234912340581000,3.2985810546875,9.485827445983887,1.3670891523361206,0.24660277366638184
1753234912356639700,3.3146396484375,9.543288230895996,1.3407529592514038,0.13168109953403473
1753234912372683800,3.330683837890625,9.880870819091797,1.290474772453308,0.18914192914962769
1753234912388742700,3.34674267578125,10.098742485046387,1.3000515699386597,0.2992752194404602
1753234912404727800,3.362727783203125,9.988609313964844,1.3192051649093628,0.38546648621559143
1753234912420758000,3.378758056640625,9.75637149810791,1.3072341680526733,0.3663128614425659
1753234912436771000,3.39477099609375,9.670180320739746,1.3503297567367554,0.3256114423274994
1753234912452776400,3.4107763671875,9.739612579345703,1.3431471586227417,0.26096799969673157
1753234912468850200,3.42685009765625,9.86889934539795,1.3120225667953491,0.22266076505184174
1753234912484877600,3.442877685546875,9.90241813659668,1.3096283674240112,0.2753331959247589
1753234912500855600,3.45885546875,9.794678688049316,1.2952631711959839,0.363918662071228
1753234912516866300,3.4748662109375,9.643844604492188,1.3048399686813354,0.3878606855869293
1753234912532857600,3.490857666015625,9.619902610778809,1.3335703611373901,0.3447650372982025
1753234912548967000,3.506966796875,9.682151794433594,1.3215993642807007,0.3280056416988373
1753234912564951600,3.52295166015625,9.797073364257812,1.259350061416626,0.33758243918418884
1753234912580934400,3.538934326171875,9.90241813659668,1.2832920551300049,0.2561795711517334
1753234912596946000,3.55494580078125,9.979032516479492,1.278503656387329,0.38546648621559143
1753234912612986400,3.570986328125,10.002974510192871,1.3096283674240112,0.40940847992897034
1753234912629090300,3.58709033203125,9.821015357971191,1.3479355573654175,0.31124621629714966
1753234912645111600,3.603111572265625,9.62947940826416,1.338358759880066,0.2106897532939911
1753234912661135600,3.619135498046875,9.545681953430176,1.280897855758667,0.2059013396501541
1753234912677145000,3.63514501953125,9.63187313079834,1.194706678390503,0.28730419278144836
1753234912693150200,3.651150146484375,9.80904483795166,1.2042834758758545,0.3423708379268646
1753234912709209000,3.667208984375,9.940725326538086,1.290474772453308,0.3687070608139038
1753234912725236200,3.683236328125,10.000580787658691,1.3431471586227417,0.3423708379268646
1753234912741238500,3.699238525390625,9.904812812805176,1.3479355573654175,0.3280056416988373
1753234912757250600,3.71525048828125,9.835380554199219,1.3527239561080933,0.36152446269989014
1753234912773245000,3.731244873046875,9.6989107131958,1.2018892765045166,0.38307225704193115
1753234912789354500,3.7473544921875,9.66539192199707,1.2258312702178955,0.395043283700943
1753234912805339400,3.76333935546875,9.648633003234863,1.3048399686813354,0.45489832758903503
1753234912821321200,3.7793212890625,9.502586364746094,1.2090718746185303,0.3902548849582672
1753234912837332700,3.795332763671875,9.452308654785156,1.1851298809051514,0.35434186458587646
1753234912853369000,3.811369140625,9.679757118225098,1.256955862045288,0.3878606855869293
1753234912869426400,3.827426513671875,9.93593692779541,1.2282254695892334,0.31842881441116333
1753234912885415700,3.843415771484375,10.022128105163574,1.2545616626739502,0.2082955539226532
1753234912901440000,3.85943994140625,9.986215591430664,1.3120225667953491,0.23942017555236816
1753234912917450800,3.87545068359375,9.904812812805176,1.37906014919281,0.2801215946674347
1753234912933469700,3.8914697265625,9.751583099365234,1.37906014919281,0.33997663855552673
1753234912949572600,3.907572509765625,9.57201862335205,1.4293384552001953,0.2944868206977844
1753234912965598000,3.923597900390625,9.548076629638672,1.4245500564575195,0.2944868206977844
1753234912981577200,3.9395771484375,9.703699111938477,1.3455413579940796,0.38307225704193115
1753234912997584400,3.95558447265625,9.876082420349121,1.3024457693099976,0.3447650372982025
1753234913013575200,3.9715751953125,9.847352027893066,1.338358759880066,0.363918662071228
1753234913029636600,3.98763671875,9.63187313079834,1.3718775510787964,0.33997663855552673
1753234913045620700,4.003620849609375,9.440337181091309,1.3766659498214722,0.3208230137825012
1753234913061598500,4.019598388671875,9.44991397857666,1.3479355573654175,0.24181437492370605
1753234913077612800,4.03561279296875,9.636661529541016,1.2737152576446533,0.15322890877723694
1753234913093608200,4.051608154296875,9.77791976928711,1.335964560508728,0.15083470940589905
1753234913109713000,4.067712890625,9.773131370544434,1.403002142906189,0.1364694982767105
1753234913125718000,4.083718017578125,9.636661529541016,1.414973258972168,0.09576806426048279
1753234913141745000,4.099744873046875,9.476250648498535,1.4867992401123047,0.1173158809542656
1753234913157757200,4.115757080078125,9.555258750915527,1.4269442558288574,0.21787235140800476
1753234913173772800,4.131772705078125,9.751583099365234,1.4317326545715332,0.3926490843296051
1753234913189830100,4.147830078125,9.825803756713867,1.5059528350830078,0.5841852426528931
1753234913205853200,4.163853271484375,9.823410034179688,1.5610195398330688,0.6224924325942993
1753234913221881600,4.179881591796875,9.679757118225098,1.6041151285171509,0.5506663918495178
1753234913237893600,4.1958935546875,9.320627212524414,1.5825673341751099,0.5722141861915588
1753234913253883000,4.2118828125,9.366117477416992,1.6519991159439087,0.3423708379268646
1753234913269987600,4.227987548828125,9.588777542114258,1.721431016921997,0.2561795711517334
1753234913285968600,4.24396875,9.634267807006836,1.7334020137786865,0.5746083855628967
1753234913301948700,4.25994873046875,9.442731857299805,1.8842366933822632,0.7924807667732239
1753234913318005000,4.2760048828125,9.157821655273438,2.0159177780151367,0.7182605266571045
1753234913334041300,4.292041259765625,8.932766914367676,2.056619167327881,0.6177040338516235
1753234913350095600,4.308095703125,9.08838939666748,2.2242133617401123,0.6105214357376099
1753234913366075100,4.3240751953125,9.610325813293457,2.382230758666992,0.7829039692878723
1753234913382094800,4.3400947265625,10.065223693847656,2.557007312774658,0.912190854549408
1753234913398105300,4.356105224609375,10.292673110961914,2.7293899059295654,0.8906430602073669
1753234913414130400,4.37213037109375,10.218452453613281,2.827552318572998,0.5793967843055725
1753234913430230800,4.388230712890625,9.861717224121094,2.853888511657715,0.3974374830722809
1753234913446254600,4.404254638671875,9.512163162231445,2.8778305053710938,0.42856210470199585
1753234913462233300,4.4202333984375,8.892065048217773,2.6647465229034424,0.5051765441894531
1753234913478246100,4.43624609375,8.329427719116211,2.58813214302063,0.4908113479614258
1753234913494240500,4.452240478515625,8.015787124633789,2.5977089405059814,0.3471592366695404
1753234913510304000,4.468303955078125,8.061277389526367,2.497152328491211,0.31603461503982544
1753234913526288000,4.484287841796875,8.250418663024902,2.4468741416931152,0.33758243918418884
1753234913542268400,4.500268310546875,8.427590370178223,2.5067291259765625,0.14844051003456116
1753234913558281700,4.51628173828125,8.604761123657227,2.513911724090576,0.15562310814857483
1753234913574323000,4.532322998046875,8.918401718139648,2.075772762298584,-0.20350714027881622
1753234913590429000,4.548428955078125,9.481039047241211,2.8802247047424316,-0.4213795065879822
1753234913606433000,4.56443310546875,9.921571731567383,2.983175277709961,0.019153613597154617
1753234913622457300,4.580457275390625,10.517727851867676,3.07415509223938,-0.06703764945268631
1753234913638516500,4.5965166015625,11.0300874710083,3.184288263320923,-0.17956513166427612
1753234913654542300,4.612542236328125,11.329362869262695,3.1268274784088135,-0.31603461503982544
1753234913670582000,4.62858203125,11.762712478637695,2.999934673309326,-0.1149216815829277
1753234913686593300,4.64459326171875,12.6365966796875,3.00711727142334,0.1867477297782898
1753234913702624500,4.66062451171875,13.184868812561035,3.066972494125366,0.6512228846549988
1753234913718615800,4.67661572265625,12.966996192932129,3.1507694721221924,0.6799532771110535
1753234913734595600,4.692595703125,12.27267837524414,2.719813108444214,0.811634361743927
1753234913750681300,4.708681396484375,11.60948371887207,2.2002713680267334,0.7709329724311829
1753234913766664200,4.724664306640625,11.403582572937012,2.054224967956543,0.8906430602073669
1753234913782645800,4.740645751953125,11.671732902526855,1.9704279899597168,0.7589619159698486
1753234913798641700,4.7566416015625,12.064382553100586,1.7094600200653076,0.629675030708313
1753234913814637800,4.772637939453125,12.344504356384277,1.3718775510787964,0.6440402865409851
1753234913830678000,4.788677978515625,12.569559097290039,1.1851298809051514,0.6488286852836609
1753234913846650400,4.804650390625,12.239158630371094,1.1276689767837524,0.13168109953403473
1753234913862674400,4.82067431640625,11.190498352050781,0.9289502501487732,-0.3758896589279175
1753234913878688300,4.836688232421875,9.617507934570312,0.730231523513794,-0.7541735172271729
1753234913894700500,4.852700439453125,8.707711219787598,0.6727706789970398,-0.5554547905921936
1753234913910795300,4.868795166015625,8.40843677520752,0.6655880808830261,-0.6129156351089478
1753234913926813400,4.8848134765625,8.14028549194336,0.7038952708244324,-1.0462661981582642
1753234913942794800,4.900794677734375,7.989450931549072,0.6392518281936646,-1.4724340438842773
1753234913958804200,4.91680419921875,8.951920509338379,0.3902548849582672,-1.403002142906189
1753234913974797600,4.932797607421875,9.605537414550781,0.8547300100326538,-0.4141969084739685
1753234913990860800,4.94886083984375,9.713275909423828,1.1827356815338135,0.0694318488240242
1753234914006847700,4.96484765625,9.390059471130371,1.1971008777618408,0.42616790533065796
1753234914022828500,4.98082861328125,8.482656478881836,1.1659762859344482,0.21547815203666687
1753234914038842600,4.996842529296875,7.3023152351379395,1.278503656387329,-0.22744916379451752
1753234914054865400,5.012865478515625,6.4834980964660645,1.5610195398330688,-0.3495534360408783
1753234914070952200,5.0289521484375,6.48828649520874,1.922544002532959,-0.08858546614646912
1753234914086926800,5.0449267578125,7.623138427734375,2.056619167327881,-0.035913024097681046
1753234914102957000,5.06095703125,8.765172004699707,2.027888774871826,-0.05027823522686958
1753234914118953000,5.076952880859375,8.801085472106934,2.008735179901123,-0.48602294921875
1753234914134971400,5.092971435546875,8.293514251708984,2.070984363555908,-0.6320692300796509
1753234914151021800,5.109021728515625,7.8098859786987305,2.2673089504241943,-0.5530605912208557
1753234914167037200,5.125037109375,7.888894557952881,2.3343467712402344,-0.6512228846549988
1753234914183049500,5.141049560546875,8.789113998413086,2.8802247047424316,-0.023942016065120697
1753234914199056600,5.157056640625,9.96945571899414,3.1675288677215576,0.05985504388809204
1753234914215049200,5.17304931640625,11.532869338989258,3.066972494125366,0.5554547905921936
1753234914231097000,5.18909716796875,12.215216636657715,2.9927520751953125,1.2018892765045166
1753234914247065900,5.20506591796875,12.497733116149902,3.2106244564056396,1.6304513216018677
1753234914263044900,5.221044921875,12.097901344299316,3.2106244564056396,1.2689268589019775
1753234914279035600,5.23703564453125,11.592724800109863,2.999934673309326,0.7541735172271729
1753234914295059700,5.253059814453125,11.252747535705566,2.940079689025879,0.6272808313369751
1753234914311117300,5.269117431640625,10.96304988861084,2.8203697204589844,1.2952631711959839
1753234914327099600,5.285099609375,10.900800704956055,2.695871114730835,1.7118542194366455
1753234914343123200,5.301123291015625,11.008539199829102,2.4851813316345215,1.5729905366897583
1753234914359133200,5.31713330078125,10.972626686096191,2.0590133666992188,0.7757213711738586
1753234914375174400,5.33317431640625,11.192893028259277,1.7477672100067139,0.09816227108240128
1753234914391274000,5.34927392578125,11.183316230773926,1.3407529592514038,0.07422025501728058
1753234914407297500,5.365297607421875,10.508151054382324,1.0031704902648926,0.12449848651885986
1753234914423280400,5.3812802734375,9.514557838439941,0.9074024558067322,-0.1628057211637497
1753234914439289900,5.397289794921875,8.453926086425781,0.7565677165985107,-0.016759412363171577
1753234914455272000,5.41327197265625,7.2352776527404785,0.4429273009300232,0.4381389021873474
1753234914471315200,5.429315185546875,6.2201361656188965,0.3758896589279175,0.4189853072166443
1753234914487284200,5.4452841796875,6.406883716583252,0.7493851184844971,0.3208230137825012
1753234914503264300,5.46126416015625,7.400477409362793,1.1540051698684692,0.047884032130241394
1753234914519254000,5.47725390625,8.180987358093262,1.3694833517074585,-0.2513911724090576
1753234914535291100,5.493291015625,8.786720275878906,1.5610195398330688,-0.3447650372982025
1753234914551380000,5.5093798828125,8.999804496765137,1.4939818382263184,-0.08379705995321274
1753234914567364600,5.525364501953125,8.753201484680176,1.5418659448623657,0.3878606855869293
1753234914583386400,5.541386474609375,8.518569946289062,1.7525556087493896,0.7086837291717529
1753234914599391200,5.55739111328125,8.02536392211914,1.8818424940109253,0.8667010068893433
1753234914615377200,5.573377197265625,7.433996200561523,1.946485996246338,0.6320692300796509
1753234914631415300,5.589415283203125,7.438784599304199,2.0039467811584473,0.4118026793003082
1753234914647437600,5.6054375,8.092401504516602,1.9249382019042969,0.6703764796257019
1753234914663422000,5.621421875,8.786720275878906,1.8100165128707886,0.7948749661445618
1753234914679433500,5.63743359375,9.006986618041992,2.0015525817871094,0.363918662071228
1753234914695423500,5.653423583984375,9.287108421325684,2.3798365592956543,0.08379705995321274
1753234914711529200,5.669529296875,9.871294021606445,2.6671407222747803,0.1604115068912506
1753234914727516200,5.68551611328125,10.678139686584473,2.695871114730835,0.4668693244457245
1753234914743521800,5.701521728515625,11.374852180480957,2.671929121017456,0.4118026793003082
1753234914759534600,5.71753466796875,11.645397186279297,2.6360161304473877,0.06224924325942993
1753234914775556400,5.733556396484375,11.717223167419434,2.6001031398773193,-0.13407529890537262
1753234914791595300,5.74959521484375,12.239158630371094,2.5546131134033203,-0.45250412821769714
1753234914807569200,5.765569091796875,13.481749534606934,2.734178304672241,-0.6631938815116882
1753234914823595000,5.781594970703125,14.300566673278809,2.5234885215759277,-0.3471592366695404
1753234914839586800,5.7975869140625,14.190433502197266,2.049436569213867,0.014365210197865963
1753234914855560400,5.813560546875,13.625401496887207,1.6304513216018677,0.12449848651885986
1753234914871642400,5.829642333984375,12.947842597961426,1.280897855758667,0.3495534360408783
1753234914887654000,5.84565380859375,12.322956085205078,0.9792284965515137,0.5482721924781799
1753234914903632400,5.86163232421875,11.6430025100708,1.0055646896362305,0.40940847992897034
1753234914919634400,5.877634521484375,11.111490249633789,1.0414776802062988,0.16519992053508759
1753234914935619800,5.893619873046875,10.24239444732666,0.6512228846549988,-0.3998316824436188
1753234914951671000,5.909671142578125,8.851364135742188,0.38307225704193115,-0.993593692779541
1753234914967643000,5.925642822265625,7.383718013763428,0.4644751250743866,-1.460463047027588
1753234914983619000,5.941619140625,6.797138690948486,0.5841852426528931,-1.4460978507995605
1753234914999608300,5.9576083984375,7.618350028991699,0.5817909836769104,-0.7876923680305481
1753234915015628800,5.97362890625,8.238448143005371,0.6991068720817566,0.19393034279346466
1753234915031730700,5.989730712890625,8.312667846679688,1.0223240852355957,0.9481038451194763
1753234915047715800,6.0057158203125,7.479485988616943,1.170764684677124,0.6488286852836609
1753234915063738600,6.021738525390625,6.775590896606445,1.1827356815338135,-0.05985504388809204
1753234915079727900,6.037727783203125,6.313509941101074,1.53707754611969,-0.26815059781074524
1753234915095699000,6.053698974609375,6.124367713928223,1.6759412288665771,-0.33758243918418884
1753234915111735800,6.06973583984375,6.282385349273682,1.7573440074920654,-0.3998316824436188
1753234915127748400,6.085748291015625,6.584054470062256,1.8052281141281128,0.090979665517807
1753234915143729200,6.101729248046875,6.641515731811523,1.7741034030914307,0.16998831927776337
1753234915159719000,6.117718994140625,7.38132381439209,1.7621324062347412,-0.08858546614646912
1753234915175691800,6.13369189453125,8.370129585266113,2.054224967956543,-0.24660277366638184
1753234915191775200,6.149775146484375,9.694122314453125,2.274491548538208,-0.1628057211637497
1753234915207750700,6.165750732421875,10.484209060668945,2.2840683460235596,0.28730419278144836
1753234915223733500,6.1817333984375,10.797849655151367,2.43011474609375,0.5099649429321289
1753234915239758600,6.197758544921875,11.118672370910645,2.3702597618103027,0.6177040338516235
1753234915255799000,6.213799072265625,11.753135681152344,2.1787235736846924,1.3192051649093628
1753234915271838000,6.229837890625,12.806585311889648,2.0446481704711914,1.015141487121582
1753234915287809800,6.245809814453125,13.488932609558105,2.075772762298584,0.5434837937355042
1753234915303831300,6.261831298828125,13.347674369812012,2.1332337856292725,0.3998316824436188
1753234915319820000,6.277820068359375,12.739546775817871,2.126051187515259,0.6344634294509888
1753234915335796500,6.29379638671875,12.36365795135498,2.0374655723571777,1.0103530883789062
1753234915351879200,6.309879150390625,12.277466773986816,1.647210717201233,1.0079588890075684
1753234915367891700,6.3258916015625,12.22000503540039,1.4101848602294922,0.15801730751991272
1753234915383872500,6.34187255859375,11.652579307556152,1.3048399686813354,-0.5291185975074768
1753234915399885600,6.357885498046875,10.656591415405273,1.072602391242981,-1.015141487121582
1753234915415873800,6.373873779296875,10.046070098876953,0.7350199222564697,-1.0534487962722778
1753234915431939000,6.38993896484375,9.514557838439941,0.48602294921875,-0.38546648621559143
1753234915447923500,6.40592333984375,9.17936897277832,0.20111294090747833,0.1412578970193863
1753234915463901400,6.4219013671875,9.150638580322266,0.181959331035614,0.38546648621559143
1753234915479909600,6.43790966796875,8.944737434387207,0.40222588181495667,0.6991068720817566
1753234915495949800,6.45394970703125,8.777143478393555,0.7182605266571045,0.4213795065879822
1753234915512056600,6.470056640625,8.339004516601562,0.9457096457481384,0.009576806798577309
1753234915528047600,6.486047607421875,7.967903137207031,1.0989385843276978,-0.10534487664699554
1753234915544076500,6.50207666015625,7.73087739944458,1.2521674633026123,-0.07182604819536209
1753234915560068600,6.518068603515625,7.393294811248779,1.3694833517074585,-0.05746084079146385
1753234915576043300,6.534043212890625,6.842628479003906,1.479616641998291,-0.014365210197865963
1753234915592082400,6.55008251953125,6.466738700866699,1.625662922859192,0.047884032130241394
1753234915608094200,6.56609423828125,5.96874475479126,1.8100165128707886,-0.05506663769483566
1753234915624121900,6.582121826171875,6.102819919586182,1.8411411046981812,0.028730420395731926
1753234915640114400,6.598114501953125,7.082048416137695,1.9129672050476074,0.10295066982507706
1753234915656091600,6.614091552734375,8.221688270568848,2.140416383743286,-0.11252748221158981
1753234915672178400,6.630178466796875,9.198522567749023,2.209848165512085,-0.15562310814857483
1753234915688153000,6.646153076171875,9.516951560974121,2.123656988143921,0.38546648621559143
1753234915704131800,6.6621318359375,9.921571731567383,2.2673089504241943,0.5291185975074768
1753234915720133000,6.678133056640625,10.831368446350098,2.5091233253479004,0.4572925269603729
1753234915736174800,6.6941748046875,12.236764907836914,2.628833532333374,0.16998831927776337
1753234915752184000,6.71018408203125,13.649343490600586,2.6431987285614014,-0.40701428055763245
1753234915768150800,6.72615087890625,14.104242324829102,2.492363929748535,-0.5051765441894531
1753234915784173000,6.742173095703125,14.015656471252441,2.7078421115875244,-0.45010992884635925
1753234915800165000,6.7581650390625,13.687650680541992,2.8395233154296875,-0.5123591423034668
1753234915816141300,6.774141357421875,13.383587837219238,2.6623523235321045,-0.5889736413955688
1753234915832222500,6.790222412109375,13.295001983642578,2.051830768585205,-0.5171475410461426
1753234915848229400,6.8062294921875,13.292608261108398,1.1683704853057861,-0.05027823522686958
1753234915864209200,6.822209228515625,12.928689002990723,0.44771572947502136,0.0933738648891449
1753234915880196600,6.838196533203125,12.179304122924805,0.12449848651885986,-0.035913024097681046
1753234915896170200,6.854170166015625,11.02051067352295,0.22026655077934265,-0.6440402865409851
1753234915912207600,6.87020751953125,9.694122314453125,0.11013327538967133,-1.113303780555725
1753234915928175600,6.886175537109375,8.44434928894043,0.1364694982767105,-1.4748282432556152
1753234915944152000,6.902152099609375,7.673416614532471,0.363918662071228,-1.5825673341751099
1753234915960140000,6.91814013671875,7.931990146636963,0.5722141861915588,-1.3742717504501343
1753234915976163300,6.934163330078125,8.609549522399902,0.6105214357376099,-0.6919242739677429
1753234915992260400,6.95026025390625,8.884882926940918,0.9289502501487732,0.24181437492370605
1753234916008269800,6.966269775390625,8.561665534973145,1.3335703611373901,0.8643068075180054
1753234916024294100,6.982294189453125,7.637503623962402,1.6328455209732056,0.9648633003234863
1753234916040297500,6.99829736328125,6.794744491577148,1.6974890232086182,0.7422025203704834
1753234916056276000,7.01427587890625,6.5050458908081055,1.8100165128707886,0.35673606395721436
1753234916072315100,7.030315185546875,6.229712963104248,1.9249382019042969,-0.08379705995321274
1753234916088328000,7.046327880859375,5.999869346618652,2.1284453868865967,-0.4620809257030487
1753234916104305700,7.0623056640625,5.978321552276611,2.212242364883423,-0.727837324142456
1753234916120295000,7.078294921875,6.117185115814209,2.032677173614502,-0.6392518281936646
1753234916136268800,7.094268798828125,6.385335922241211,2.070984363555908,-0.4812345504760742
1753234916152354600,7.1103544921875,6.775590896606445,2.298433542251587,-0.5937620401382446
1753234916168323800,7.12632373046875,7.898471355438232,2.63362193107605,-0.9241618514060974
1753234916184301300,7.14230126953125,9.780313491821289,2.9688100814819336,-0.9528923034667969
1753234916200287000,7.158286865234375,11.501745223999023,2.9257144927978516,-0.6488286852836609
1753234916216306200,7.17430615234375,11.96861457824707,2.784456491470337,-0.17477671802043915
1753234916240293000,7.198293212890625,11.827356338500977,2.7437551021575928,0.19393034279346466
1753234916256309800,7.214309814453125,11.994950294494629,2.7533318996429443,0.3447650372982025
1753234916272341500,7.230341552734375,12.500126838684082,2.516305923461914,0.1843535304069519
1753234916288305200,7.24630517578125,12.571952819824219,2.190694570541382,0.31842881441116333
1753234916304319000,7.262319091796875,11.856086730957031,2.078166961669922,0.9624691009521484
1753234916320351000,7.27835107421875,11.291055679321289,1.7334020137786865,1.2401964664459229
1753234916336380400,7.29438037109375,11.712434768676758,1.290474772453308,0.9768342971801758
1753234916352363800,7.31036376953125,12.966996192932129,1.1252747774124146,0.3711012601852417
1753234916368329200,7.3263291015625,14.204798698425293,1.0007762908935547,-0.45010992884635925
1753234916384306400,7.342306396484375,13.97256088256836,0.8212111592292786,-1.1085153818130493
1753234916400340200,7.35834033203125,12.30859088897705,0.6536170840263367,-0.9217676520347595
1753234916416316200,7.374316162109375,9.84495735168457,0.3711012601852417,-0.33758243918418884
1753234916432303000,7.39030322265625,7.544129371643066,0.33039984107017517,0.22744916379451752
1753234916448321300,7.4063212890625,5.925649166107178,0.6248866319656372,0.5578489899635315
1753234916464344600,7.422344482421875,5.585672378540039,0.9959878921508789,0.8355764150619507
1753234916480352000,7.43835205078125,6.576871871948242,0.9169792532920837,0.9768342971801758
1753234916496328000,7.454327880859375,7.9631147384643555,1.05105459690094,0.14844051003456116
1753234916512407300,7.4704072265625,9.184157371520996,1.216254472732544,-0.5937620401382446
1753234916528377600,7.486377685546875,9.239224433898926,1.3910311460494995,-0.8212111592292786
1753234916544353800,7.502353759765625,8.470685958862305,1.5083470344543457,-0.6105214357376099
1753234916560402700,7.518402587890625,7.2352776527404785,1.381454348564148,-0.20111294090747833
1753234916576422400,7.53442236328125,6.098031520843506,1.5514427423477173,0.20111294090747833
1753234916592411600,7.55041162109375,5.726930618286133,1.699883222579956,0.21308395266532898
1753234916608378400,7.56637841796875,6.124367713928223,1.7310078144073486,0.06703764945268631
1753234916624398800,7.58239892578125,6.586448669433594,1.9393033981323242,0.0071826050989329815
1753234916640429000,7.598428955078125,7.3885064125061035,2.0159177780151367,-0.2513911724090576
1753234916656405800,7.61440576171875,9.275136947631836,2.140416383743286,-0.14844051003456116
1753234916672394000,7.63039404296875,11.154585838317871,2.1523873805999756,0.10295066982507706
1753234916688405800,7.64640576171875,12.15057373046875,2.0590133666992188,0.2561795711517334
1753234916704375300,7.662375244140625,12.33013916015625,2.1571757793426514,-0.0071826050989329815
1753234916720370000,7.678369873046875,12.215216636657715,2.3726539611816406,-0.3711012601852417
1753234916736346000,7.69434619140625,12.464214324951172,2.449268341064453,-0.689530074596405
1753234916752378600,7.710378662109375,12.823344230651855,2.492363929748535,-0.6368576288223267
1753234916768340500,7.726340576171875,13.055582046508789,2.580949544906616,-0.3663128614425659
1753234916784354800,7.742354736328125,13.184868812561035,2.3582887649536133,0.016759412363171577
1753234916800385800,7.7583857421875,13.311761856079102,1.8746598958969116,0.31842881441116333
1753234916816401700,7.774401611328125,13.831303596496582,1.1755530834197998,0.5506663918495178
1753234916832389600,7.7903896484375,14.415488243103027,0.811634361743927,0.6560112833976746
1753234916848354300,7.806354248046875,14.731523513793945,0.7350199222564697,0.22026655077934265
1753234916864331800,7.822331787109375,13.965378761291504,0.45010992884635925,-0.4620809257030487
1753234916880365000,7.838364990234375,11.860875129699707,0.10534487664699554,-1.0438719987869263
1753234916896340200,7.85434033203125,9.600749015808105,0.2298433631658554,-1.2210428714752197
1753234916912329000,7.870328857421875,7.524975776672363,0.3663128614425659,-1.5418659448623657
1753234916928338700,7.886338623046875,6.232107162475586,0.5099649429321289,-1.558625340461731
1753234916944350500,7.9023505859375,6.155492782592773,0.7613561153411865,-1.036689281463623
1753234916960383000,7.918383056640625,7.072471618652344,1.0989385843276978,-0.24181437492370605
1753234916976356400,7.9343564453125,8.109161376953125,1.2856862545013428,0.05027823522686958
1753234916992404000,7.950404052734375,8.403648376464844,1.338358759880066,0.07900865375995636
1753234917008381400,7.96638134765625,8.070854187011719,1.3838485479354858,-0.22505496442317963
1753234917024353500,7.982353515625,7.359776020050049,1.6208745241165161,-0.6991068720817566
1753234917040388000,7.99838818359375,6.560112476348877,1.7812861204147339,-0.6248866319656372
1753234917056406500,8.014406494140625,5.932831764221191,1.6184803247451782,-0.22744916379451752
1753234917072444000,8.03044384765625,5.506663799285889,1.680729627609253,-0.4405331015586853
1753234917088412000,8.046411865234376,5.5329999923706055,1.7262194156646729,-0.5363011956214905
1753234917104433400,8.062433349609375,6.179434776306152,1.8363527059555054,-0.8738836050033569
1753234917120464000,8.0784638671875,7.496245384216309,1.920149803161621,-1.256955862045288
1753234917136434700,8.0944345703125,9.059659004211426,2.0398597717285156,-0.9983820915222168
1753234917152418600,8.11041845703125,10.345345497131348,2.0422539710998535,-0.43335050344467163
1753234917168435700,8.126435791015625,11.343728065490723,2.0446481704711914,-0.1149216815829277
1753234917184407600,8.142407470703125,11.966219902038574,2.2002713680267334,0.016759412363171577
1753234917200417000,8.1584169921875,11.923124313354492,2.255337953567505,0.15322890877723694
1753234917216440600,8.174440673828125,11.78904914855957,2.341529369354248,0.19153612852096558
1753234917232477000,8.190476806640625,11.829751014709473,2.3367409706115723,-0.05027823522686958
1753234917248445400,8.206445556640626,11.906365394592285,2.166752576828003,-0.07182604819536209
1753234917264473900,8.222473876953124,11.860875129699707,1.8124107122421265,0.3687070608139038
1753234917280511200,8.23851123046875,11.944672584533691,1.6711528301239014,0.6751648783683777
1753234917296530400,8.254530517578125,12.610260009765625,1.314416766166687,0.2585737705230713
1753234917312524300,8.270524169921876,13.728352546691895,1.0630255937576294,-0.2777273952960968
1753234917328493600,8.28649365234375,14.700398445129395,1.1540051698684692,-0.8858546018600464
1753234917344472300,8.302472412109376,14.528016090393066,0.912190854549408,-0.9385270476341248
1753234917360507400,8.31850732421875,12.981361389160156,0.6512228846549988,-0.667982280254364
1753234917376483800,8.33448388671875,10.848128318786621,0.2849099934101105,-0.2537853717803955
1753234917392472800,8.350472900390624,8.832210540771484,0.21547815203666687,0.5171475410461426
1753234917408488200,8.36648828125,7.105990409851074,0.45489832758903503,1.0534487962722778
1753234917424506600,8.382506591796876,6.287173748016357,0.6368576288223267,1.0869675874710083
1753234917440542500,8.39854248046875,6.514622688293457,0.5674257874488831,0.8020575642585754
1753234917456517400,8.414517333984374,7.55131196975708,0.6392518281936646,0.395043283700943
1753234917472551000,8.430551025390624,8.753201484680176,0.8451532125473022,-0.09816227108240128
1753234917488522000,8.44652197265625,8.947132110595703,1.039083480834961,-0.14844051003456116
1753234917504502300,8.462502197265625,8.090007781982422,1.039083480834961,0.05506663769483566
1753234917520559400,8.478559326171874,6.8043212890625,1.0414776802062988,0.06224924325942993
1753234917536576500,8.494576416015626,5.626373767852783,1.290474772453308,-0.05746084079146385
1753234917552564200,8.510564208984375,4.812345504760742,1.3862427473068237,-0.16998831927776337
1753234917568530000,8.526530029296875,4.8051629066467285,1.534683346748352,-0.2059013396501541
1753234917584547300,8.54254736328125,5.659893035888672,1.7717092037200928,-0.026336219161748886
1753234917600583200,8.558583251953126,7.419631004333496,1.9345149993896484,0.15801730751991272
1753234917616557000,8.57455712890625,9.148244857788086,1.9081788063049316,-0.014365210197865963
1753234917632545000,8.590544921875,9.801861763000488,1.659181833267212,-0.011971008032560349
1753234917648564500,8.606564453125,9.818621635437012,1.742978811264038,0.26575639843940735
1753234917664539100,8.6225390625,10.156203269958496,1.9321208000183105,0.16519992053508759
1753234917680582700,8.638582763671875,11.279084205627441,1.8746598958969116,-0.14844051003456116
1753234917696605700,8.654605712890625,12.832921028137207,1.9560627937316895,-0.31364041566848755
1753234917712646100,8.670646240234374,14.149731636047363,1.9345149993896484,-0.5003881454467773
1753234917728615200,8.686615234375,14.666879653930664,1.6112977266311646,-0.5506663918495178
1753234917744664600,8.70266455078125,14.121001243591309,1.5729905366897583,-0.8188169598579407
1753234917760691200,8.718691162109375,13.400346755981445,1.0797849893569946,-0.646434485912323
1753234917776710100,8.734710205078125,13.4290771484375,0.3974374830722809,0.22744916379451752
1753234917792748300,8.750748291015626,14.334085464477539,0.3519476354122162,0.9481038451194763
1753234917808715300,8.76671533203125,15.454571723937988,0.395043283700943,0.507570743560791
1753234917824693000,8.78269287109375,15.334861755371094,0.38546648621559143,-0.4644751250743866
1753234917840730000,8.798730224609375,13.208810806274414,0.1867477297782898,-1.1180921792984009
1753234917856705300,8.814705322265626,10.51054573059082,0.08140286058187485,-1.115697979927063
1753234917872689200,8.830689208984374,7.864952564239502,0.10055647045373917,-1.0869675874710083
1753234917888704500,8.84670458984375,6.311115741729736,0.1867477297782898,-0.7326257228851318
1753234917904726800,8.862726806640625,5.987898349761963,0.019153613597154617,-0.6057330369949341
1753234917920763000,8.878762939453125,7.201758861541748,0.11252748221158981,0.2801215946674347
1753234917936739800,8.89473974609375,8.458714485168457,0.49559974670410156,0.6823474764823914
1753234917952774400,8.9107744140625,9.042900085449219,0.6799532771110535,0.3878606855869293
1753234917968746800,8.926746826171875,8.611943244934082,0.7613561153411865,-0.3016694188117981
1753234917984743700,8.94274365234375,7.8098859786987305,1.0893617868423462,-0.6440402865409851
1753234918000798700,8.958798828125,6.761225700378418,1.072602391242981,-0.33997663855552673
1753234918016815400,8.9748154296875,5.868188381195068,1.0893617868423462,-0.27054479718208313
1753234918032800500,8.990800537109376,5.2265424728393555,1.2689268589019775,-0.20350714027881622
1753234918048765700,9.006765625,5.451597213745117,1.5203180313110352,-0.12689268589019775
1753234918064786200,9.0227861328125,6.646304130554199,1.4963760375976562,-0.524330198764801
1753234918080823000,9.038822998046875,8.14028549194336,1.4317326545715332,-0.8882488012313843
1753234918096805600,9.0548056640625,9.581595420837402,1.7094600200653076,-0.6655880808830261
1753234918112849000,9.070848876953125,10.843339920043945,1.98958158493042,-0.33997663855552673
1753234918128872700,9.086872802734375,11.571176528930664,1.9488801956176758,-0.5817909836769104
1753234918144850700,9.1028505859375,11.868058204650879,1.8602946996688843,-0.4884171485900879
1753234918160863200,9.11886328125,11.599906921386719,1.9776105880737305,-0.07661445438861847
1753234918176900900,9.13490087890625,11.341333389282227,2.1571757793426514,-0.009576806798577309
1753234918192955600,9.15095556640625,11.765107154846191,2.2194249629974365,0.2968810200691223
1753234918208925700,9.16692578125,12.6150484085083,2.0254945755004883,0.4429273009300232
1753234918224943400,9.182943359375,13.30457878112793,1.8339585065841675,0.47165772318840027
1753234918240982300,9.198982177734376,13.4290771484375,1.7262194156646729,0.6248866319656372
1753234918257002200,9.215002197265624,13.220781326293945,1.723825216293335,0.8978256583213806
1753234918272993300,9.2309931640625,13.290213584899902,1.436521053314209,1.091755986213684
1753234918288966000,9.2469658203125,12.677297592163086,1.1228805780410767,0.5530605912208557
1753234918304950300,9.2629501953125,11.068394660949707,1.0007762908935547,-0.40462008118629456
1753234918320991700,9.27899169921875,9.751583099365234,0.7876923680305481,-1.1971008777618408
1753234918336977200,9.29497705078125,9.411606788635254,0.26815059781074524,-0.6129156351089478
1753234918352978700,9.310978759765625,9.509769439697266,0.090979665517807,0.17238251864910126
1753234918369005000,9.327005126953125,9.531316757202148,0.1412578970193863,0.7086837291717529
1753234918385027600,9.343027587890624,9.090784072875977,0.27054479718208313,1.0271124839782715
1753234918401088000,9.359087890625,8.765172004699707,0.48602294921875,0.8092401623725891
1753234918417114600,9.375114501953124,8.396465301513672,0.7876923680305481,0.19393034279346466
1753234918433172500,9.39117236328125,8.159439086914062,1.05105459690094,-0.33518823981285095
1753234918449157600,9.40715771484375,7.68538761138916,1.158793568611145,-0.4213795065879822
1753234918465167000,9.4231669921875,6.691793918609619,1.2114660739898682,-0.5219359993934631
1753234918481206300,9.439206298828125,5.880159378051758,1.381454348564148,-0.8451532125473022
1753234918497229800,9.455229736328125,5.430049419403076,1.6208745241165161,-0.5937620401382446
1753234918513303300,9.47130322265625,5.190629482269287,1.7477672100067139,-0.2968810200691223
1753234918529271000,9.48727099609375,5.202600479125977,1.8914192914962769,-0.181959331035614
1753234918545292500,9.50329248046875,5.568912982940674,1.9967641830444336,-0.031124621629714966
1753234918561329000,9.519328857421876,6.311115741729736,2.1523873805999756,-0.20350714027881622
1753234918577307100,9.53530712890625,7.189787864685059,2.1284453868865967,-0.19871874153614044
1753234918593291500,9.55129150390625,8.508993148803711,2.1715409755706787,0.043095629662275314
1753234918609309700,9.567309814453125,9.727641105651855,2.1763293743133545,0.7110779285430908
1753234918625287200,9.583287109375,10.943896293640137,2.31758713722229,0.7948749661445618
1753234918641321200,9.5993212890625,11.729193687438965,2.612074136734009,0.9193734526634216
1753234918657327000,9.6153271484375,12.246341705322266,2.75812029838562,0.3902548849582672
1753234918673363700,9.63136376953125,12.806585311889648,2.75812029838562,-0.1388636976480484
1753234918689331700,9.647331787109374,13.84566879272461,2.9281086921691895,-0.5913678407669067
1753234918705386500,9.663386474609375,14.867992401123047,3.40216064453125,-1.259350061416626
1753234918721425400,9.67942529296875,15.413870811462402,3.4955344200134277,-1.3215993642807007
1753234918737449500,9.695449462890625,15.150507926940918,2.959233283996582,-0.9457096457481384
1753234918753440800,9.711440673828125,14.800954818725586,2.118868589401245,-0.5722141861915588
1753234918769408500,9.727408447265624,14.360422134399414,1.0582371950149536,0.3232172429561615
1753234918785387300,9.74338720703125,13.800178527832031,0.5267243981361389,0.05027823522686958
1753234918801424000,9.759423828125,13.017274856567383,0.12689268589019775,-0.8427590131759644
1753234918817402400,9.77540234375,11.640608787536621,-0.2585737705230713,-1.6974890232086182
1753234918833390800,9.791390869140624,9.622296333312988,-0.4644751250743866,-1.6615760326385498
1753234918849407200,9.8074072265625,7.580042362213135,-0.26336219906806946,-1.5538369417190552
1753234918865425000,9.8234248046875,6.325480937957764,0.08379705995321274,-1.4772224426269531
1753234918881461800,9.839461669921874,6.224924564361572,0.2106897532939911,-1.1300631761550903
1753234918897438500,9.8554384765625,6.873753070831299,0.12449848651885986,-0.38307225704193115
1753234918913476900,9.871476806640626,8.061277389526367,0.2944868206977844,0.004788403399288654
1753234918929457700,9.887457763671875,8.719682693481445,0.6368576288223267,0.1412578970193863
1753234918945475300,9.903475341796875,8.40843677520752,1.0630255937576294,0.15801730751991272
1753234918961526500,9.919526611328125,7.618350028991699,1.4748282432556152,-0.07661445438861847
1753234918977548800,9.935548828125,6.7708024978637695,1.8555063009262085,-0.17717093229293823
1753234918993540000,9.9515400390625,6.033388137817383,1.8698714971542358,-0.33518823981285095
1753234919009508000,9.967508056640625,5.43723201751709,1.8531121015548706,-0.17238251864910126
1753234919025533700,9.98353369140625,4.977545261383057,2.0183119773864746,-0.21308395266532898
1753234919041571000,9.999571044921876,5.1810526847839355,2.0877439975738525,-0.2106897532939911
1753234919057547300,10.01554736328125,6.540958881378174,1.9393033981323242,-0.11252748221158981
1753234919073536300,10.031536376953126,8.4108304977417,2.008735179901123,-0.0933738648891449
1753234919089553700,10.0475537109375,10.189722061157227,2.451662540435791,-0.3232172429561615
1753234919105531400,10.063531494140625,12.138602256774902,2.7461493015289307,-0.5195417404174805
1753234919121569000,10.079569091796875,13.120224952697754,2.3918075561523438,-0.07422025501728058
1753234919137577000,10.095576904296875,13.110648155212402,2.2361843585968018,0.42377370595932007
1753234919153612800,10.11161279296875,12.500126838684082,2.403778553009033,0.11971008777618408
1753234919169580500,10.12758056640625,11.961431503295898,2.3918075561523438,-0.22744916379451752
1753234919185594000,10.143593994140625,11.860875129699707,2.322375535964966,-0.608127236366272
1753234919201627400,10.15962744140625,12.042834281921387,2.1954829692840576,-0.26336219906806946
1753234919217644000,10.17564404296875,12.253523826599121,1.867477297782898,0.43335050344467163
1753234919233633800,10.1916337890625,12.231976509094238,1.525106430053711,0.6248866319656372
1753234919249600300,10.207600341796875,12.612654685974121,1.2832920551300049,0.22266076505184174
1753234919265576700,10.22357666015625,13.709198951721191,1.0199298858642578,-0.3734954595565796
1753234919281609000,10.23960888671875,14.350845336914062,0.9361328482627869,-0.6967126727104187
1753234919297582800,10.255582763671875,13.414711952209473,0.8858546018600464,-1.1516109704971313
1753234919313568800,10.27156884765625,11.338939666748047,0.5482721924781799,-1.1899182796478271
1753234919329586000,10.2875859375,9.255983352661133,0.24660277366638184,-0.5315127968788147
1753234919345603800,10.303603759765625,7.5632829666137695,0.1388636976480484,0.272938996553421
1753234919361639000,10.319638916015625,6.538564682006836,0.2537853717803955,0.8858546018600464
1753234919377616400,10.335616455078124,6.588842868804932,0.47405192255973816,1.1755530834197998
1753234919393649700,10.351649658203126,7.453149795532227,0.6560112833976746,0.9433154463768005
1753234919409629200,10.367629150390625,8.403648376464844,0.8451532125473022,0.3519476354122162
1753234919425595000,10.383594970703125,8.719682693481445,1.072602391242981,-0.13168109953403473
1753234919441644500,10.39964453125,8.29830265045166,1.139639973640442,-0.1867477297782898
1753234919457671000,10.4156708984375,7.69735860824585,1.2952631711959839,-0.10295066982507706
1753234919473654500,10.431654541015625,6.904877662658691,1.290474772453308,-0.047884032130241394
1753234919489616000,10.447615966796874,6.026205539703369,1.3407529592514038,0.06703764945268631
1753234919505634600,10.463634521484375,5.432443618774414,1.5275006294250488,0
1753234919521668000,10.479668212890624,5.499481201171875,1.6639702320098877,0.19153612852096558
1753234919537644000,10.49564404296875,6.033388137817383,1.9632453918457031,0.31124621629714966
1753234919553631200,10.51163134765625,6.789956092834473,2.1284453868865967,0.1843535304069519
1753234919569644800,10.527644775390625,7.608773231506348,2.185906171798706,-0.1867477297782898
1753234919585616600,10.54361669921875,8.80587387084961,2.2002713680267334,-0.23702596127986908
1753234919601653200,10.5596533203125,10.139444351196289,1.9584569931030273,0.20111294090747833
1753234919617631200,10.57563134765625,11.463438034057617,1.7381904125213623,0.45010992884635925
1753234919633663700,10.591663818359375,12.246341705322266,1.9488801956176758,0.3711012601852417
1753234919649628400,10.60762841796875,12.574347496032715,2.389413356781006,0.05027823522686958
1753234919665671200,10.623671142578125,12.801796913146973,2.5929205417633057,-0.07900865375995636
1753234919681705700,10.639705810546875,13.206416130065918,2.5689783096313477,-0.4381389021873474
1753234919697724000,10.655723876953125,13.529633522033691,2.564189910888672,-0.912190854549408
1753234919713714700,10.671714599609375,13.632584571838379,2.5091233253479004,-0.9026140570640564
1753234919729682700,10.6876826171875,13.929465293884277,2.126051187515259,-0.4429273009300232
1753234919745664000,10.7036640625,14.642937660217285,1.4077905416488647,0.026336219161748886
1753234919761700900,10.719700927734374,15.090653419494629,0.569819986820221,0.5841852426528931
1753234919777678300,10.73567822265625,14.52322769165039,0.05506663769483566,0.3663128614425659
1753234919793669400,10.75166943359375,13.139378547668457,0.014365210197865963,-0.22266076505184174
1753234919809691400,10.76769140625,11.204863548278809,-0.08140286058187485,-0.706289529800415
1753234919825709600,10.78370947265625,9.332598686218262,-0.031124621629714966,-0.9528923034667969
1753234919841746700,10.79974658203125,7.939172744750977,0.033518824726343155,-1.0271124839782715
1753234919857725200,10.81572509765625,7.19936466217041,0.19632454216480255,-0.7948749661445618
1753234919873758000,10.831758056640625,7.589619159698486,0.4429273009300232,-0.31603461503982544
1753234919889741600,10.847741455078125,8.20492935180664,0.5650315880775452,0.1173158809542656
1753234919905713400,10.86371337890625,8.362946510314941,0.8427590131759644,0.2082955539226532
1753234919921767700,10.879767578125,8.099584579467773,1.170764684677124,0.26336219906806946
1753234919937799700,10.895799560546875,7.706935405731201,1.3982137441635132,0.15801730751991272
1753234919953789700,10.911789794921875,7.208941459655762,1.5059528350830078,0.2106897532939911
1753234919969757000,10.9277568359375,6.665457725524902,1.5418659448623657,0.1412578970193863
1753234919985775400,10.943775390625,6.069301128387451,1.699883222579956,-0.026336219161748886
1753234920001807000,10.95980712890625,5.568912982940674,1.800439715385437,-0.12928688526153564
1753234920017780000,10.975780029296875,5.506663799285889,1.9105730056762695,-0.44532153010368347
1753234920033763300,10.991763427734375,6.011840343475342,2.054224967956543,-0.8451532125473022
1753234920049778000,11.00777783203125,6.916848659515381,2.166752576828003,-1.161187767982483
1753234920065752600,11.023752685546874,7.785943984985352,2.1739351749420166,-1.0749965906143188
1753234920081800700,11.03980078125,8.920795440673828,2.518700122833252,-0.7398083209991455
1753234920097782500,11.055782470703125,9.931148529052734,2.7006595134735107,-0.3878606855869293
1753234920113826600,11.07182666015625,10.970232009887695,2.454056739807129,0.009576806798577309
1753234920129792500,11.08779248046875,12.378023147583008,2.1499931812286377,0.31124621629714966
1753234920145835300,11.103835205078125,12.955025672912598,2.212242364883423,0.40222588181495667
1753234920161869600,11.11986962890625,13.160926818847656,2.389413356781006,-0.2106897532939911
1753234920177888300,11.13588818359375,13.014880180358887,2.255337953567505,-0.7757213711738586
1753234920193924900,11.1519248046875,12.483367919921875,1.968033790588379,-0.933738648891449
1753234920209892900,11.167892822265625,12.030863761901855,1.7190368175506592,-0.5051765441894531
1753234920225873200,11.183873046875,12.133813858032227,1.5083470344543457,-0.47884035110473633
1753234920241907500,11.199907470703126,13.55118179321289,1.5107412338256836,-0.8068459630012512
1753234920257886000,11.215885986328125,15.737088203430176,1.4748282432556152,-0.7015010714530945
1753234920273873400,11.231873291015624,15.98129653930664,0.7757213711738586,-0.11252748221158981
1753234920289889500,11.2478896484375,13.685256958007812,0.7445967197418213,-0.05027823522686958
1753234920305906700,11.26390673828125,11.02051067352295,0.7781155705451965,-0.7230489253997803
1753234920321940000,11.27993994140625,8.506598472595215,0.4118026793003082,-0.1604115068912506
1753234920337913600,11.29591357421875,6.3973069190979,0.24181437492370605,0.6751648783683777
1753234920353946600,11.311946533203125,5.494692802429199,0.45489832758903503,1.1180921792984009
1753234920369910500,11.32791064453125,6.600813865661621,0.5506663918495178,1.1779472827911377
1753234920385880800,11.343880859375,8.061277389526367,0.5722141861915588,0.9313444495201111
1753234920401915600,11.35991552734375,9.181763648986816,0.7110779285430908,0.1843535304069519
1753234920417935600,11.375935546875,9.47146224975586,0.5985504388809204,-0.35673606395721436
1753234920433929700,11.3919296875,8.391676902770996,0.706289529800415,-0.3998316824436188
1753234920449895400,11.4078955078125,6.988674640655518,0.8140285611152649,-0.5027823448181152
1753234920465916400,11.42391650390625,5.659893035888672,0.7733271718025208,-0.05267243832349777
1753234920481922000,11.439922119140626,4.800374507904053,1.1252747774124146,0.1173158809542656
1753234920497891800,11.455891845703125,4.086902141571045,1.5059528350830078,-0.12928688526153564
1753234920513875000,11.471875,4.484339714050293,1.7932571172714233,-0.8786720037460327
1753234920529889000,11.487888916015624,5.4228668212890625,1.9369091987609863,-1.1013327836990356
1753234920545861600,11.503861572265626,7.259219646453857,2.0254945755004883,-0.5363011956214905
1753234920561898500,11.5198984375,9.191340446472168,2.145204782485962,-0.22505496442317963
1753234920577907500,11.535907470703124,10.984597206115723,2.049436569213867,-0.038307227194309235
1753234920593991700,11.55199169921875,12.346898078918457,1.7717092037200928,-0.10295066982507706
1753234920609963000,11.567962890625,12.318167686462402,1.5394717454910278,-0.2825157940387726
1753234920625983500,11.5839833984375,12.071564674377441,1.8195933103561401,-0.5410895943641663
1753234920641997300,11.599997314453125,11.84650993347168,2.0254945755004883,-0.950498104095459
1753234920658017300,11.616017333984376,12.02607536315918,2.0661959648132324,-1.5705963373184204
1753234920674010600,11.6320107421875,12.741941452026367,2.0159177780151367,-1.946485996246338
1753234920689976600,11.6479765625,13.88158130645752,2.0398597717285156,-1.556231141090393
1753234920705952300,11.6639521484375,14.018051147460938,1.867477297782898,-0.5147533416748047
1753234920721987300,11.6799873046875,13.340492248535156,1.2617442607879639,-0.37828385829925537
1753234920737967600,11.695967529296874,13.230358123779297,0.30885201692581177,0.026336219161748886
1753234920753956900,11.711956787109376,13.797784805297852,-0.12449848651885986,0.0071826050989329815
1753234920769972000,11.727971923828125,14.334085464477539,-0.3663128614425659,-0.5530605912208557
1753234920785988000,11.743988037109375,13.582305908203125,-0.3902548849582672,-1.115697979927063
1753234920802020400,11.760020263671874,11.726799964904785,-0.31842881441116333,-1.4484920501708984
1753234920818023700,11.776023681640625,9.363722801208496,-0.3064578175544739,-1.4460978507995605
1753234920834056000,11.792055908203125,7.280767440795898,-0.36152446269989014,-1.4915876388549805
1753234920850018600,11.8080185546875,6.294356346130371,-0.45010992884635925,-1.479616641998291
1753234920865988600,11.823988525390625,6.7492547035217285,-0.2537853717803955,-0.912190854549408
1753234920882022700,11.840022705078125,8.097189903259277,0.14844051003456116,-0.023942016065120697
1753234920898052000,11.856052001953126,9.121908187866211,0.6560112833976746,0.33279404044151306
1753234920914066200,11.872066162109375,9.121908187866211,1.1348515748977661,0.2825157940387726
1753234920930044400,11.88804443359375,8.176198959350586,1.357512354850769,0.14604631066322327
1753234920946066200,11.904066162109375,7.050923824310303,1.4915876388549805,0.07182604819536209
1753234920962102000,11.92010205078125,5.75326681137085,1.4891934394836426,0.2561795711517334
1753234920978079200,11.936079345703124,4.955997467041016,1.3718775510787964,0.3232172429561615
1753234920994066200,11.952066162109375,4.944026470184326,1.460463047027588,0.22266076505184174
1753234921010081000,11.9680810546875,5.568912982940674,1.525106430053711,-0.23702596127986908
1753234921026056000,11.984055908203125,6.490680694580078,1.3527239561080933,-0.6248866319656372
1753234921042092800,12.0000927734375,7.814674377441406,1.5275006294250488,-0.6775590777397156
1753234921058122200,12.016122314453124,9.727641105651855,1.8171991109848022,-0.9864110946655273
1753234921074160000,12.03216015625,11.3269681930542,1.800439715385437,-0.9672574996948242
1753234921090127400,12.04812744140625,11.70046329498291,1.7166426181793213,-0.6727706789970398
1753234921106143700,12.064143798828125,11.731588363647461,1.7549498081207275,-0.12449848651885986
1753234921122157300,12.0801572265625,12.047622680664062,1.8914192914962769,0.33997663855552673
1753234921138169000,12.096169189453125,13.055582046508789,2.0015525817871094,0.4692635238170624
1753234921154205200,12.112205078125,14.111424446105957,1.7956513166427612,0.3998316824436188
1753234921170171100,12.128171142578125,14.312538146972656,1.556231141090393,0.09816227108240128
1753234921186147600,12.144147705078124,13.67807388305664,1.2641384601593018,0.3495534360408783
1753234921202180000,12.16018017578125,12.871228218078613,0.9241618514060974,0.6584054827690125
1753234921218152400,12.17615234375,12.710816383361816,0.6344634294509888,0.3447650372982025
1753234921234136300,12.19213623046875,13.259089469909668,0.4213795065879822,-0.05267243832349777
1753234921250149600,12.208149658203125,13.66610336303711,0.7110779285430908,-0.4165911078453064
1753234921266165000,12.2241650390625,13.378799438476562,0.6512228846549988,-0.7350199222564697
1753234921282199600,12.240199462890626,11.571176528930664,0.17238251864910126,-0.6775590777397156
1753234921298172700,12.256172607421876,9.17936897277832,-0.24420857429504395,-0.1364694982767105
1753234921314203400,12.272203369140625,7.204153060913086,-0.31124621629714966,0.49559974670410156
1753234921330167800,12.288167724609375,6.0597243309021,-0.31124621629714966,0.9026140570640564
1753234921346138000,12.30413818359375,6.033388137817383,-0.10295066982507706,1.290474772453308
1753234921362166800,12.320166748046875,7.359776020050049,0.17717093229293823,1.5203180313110352
1753234921378181400,12.336181396484376,8.995016098022461,0.5195417404174805,0.7876923680305481
1753234921394213000,12.352213134765625,9.710882186889648,0.9002198576927185,-0.16998831927776337
1753234921410179600,12.3681796875,9.586383819580078,1.070208191871643,-0.790086567401886
1753234921426198000,12.384197998046876,8.358158111572266,0.9289502501487732,-0.9792284965515137
1753234921442249200,12.400249267578126,6.888118267059326,1.1252747774124146,-0.8834604024887085
1753234921458224600,12.416224609375,5.540182590484619,1.6352397203445435,-0.395043283700943
1753234921474210600,12.43221044921875,4.927267074584961,1.9608511924743652,-0.2968810200691223
1753234921490223900,12.448223876953126,5.185841083526611,2.011129379272461,-0.20350714027881622
1753234921506191600,12.464191650390624,6.289567947387695,1.8842366933822632,-0.3256114423274994
1753234921522223900,12.480223876953126,7.7428483963012695,1.7621324062347412,-0.5195417404174805
1753234921538202000,12.4962021484375,9.119514465332031,1.7549498081207275,-0.5051765441894531
1753234921554233300,12.5122333984375,10.520122528076172,1.8148049116134644,-0.4596867263317108
1753234921570202400,12.528202392578125,11.094730377197266,1.9776105880737305,0.12210428714752197
1753234921586222300,12.544222412109375,11.049241065979004,2.10210919380188,0.19632454216480255
1753234921602264800,12.560264892578125,11.190498352050781,2.1763293743133545,-0.05746084079146385
1753234921618326300,12.576326171875,11.906365394592285,2.451662540435791,-0.40222588181495667
1753234921634315500,12.5923154296875,12.354081153869629,2.2840683460235596,-0.8643068075180054
1753234921650279000,12.60827880859375,12.921506881713867,2.0039467811584473,-1.2761094570159912
1753234921666253600,12.624253662109375,13.850457191467285,1.8507179021835327,-1.1994950771331787
1753234921682286600,12.64028662109375,14.67406177520752,1.9177556037902832,-0.8667010068893433
1753234921698259200,12.65625927734375,14.712369918823242,1.867477297782898,-0.7422025203704834
1753234921714243600,12.67224365234375,14.348450660705566,1.2282254695892334,-0.5817909836769104
1753234921730254800,12.6882548828125,13.7666597366333,0.40701428055763245,-0.40222588181495667
1753234921746271500,12.704271484375,12.732364654541016,-0.090979665517807,-0.1412578970193863
1753234921762307000,12.72030712890625,11.207258224487305,-0.18914192914962769,-0.35673606395721436
1753234921778280700,12.73628076171875,9.703699111938477,-0.1628057211637497,-0.8427590131759644
1753234921794314800,12.752314697265625,8.130708694458008,-0.2753331959247589,-1.2234370708465576
1753234921810283500,12.768283447265626,7.06528902053833,-0.28730419278144836,-1.3766659498214722
1753234921826265600,12.784265625,7.046135425567627,-0.3232172429561615,-1.4317326545715332
1753234921842303500,12.800303466796874,8.032546997070312,-0.031124621629714966,-0.42856210470199585
1753234921858330600,12.81633056640625,9.14345645904541,0.5051765441894531,0.2777273952960968
1753234921874332000,12.832331787109375,9.442731857299805,0.7326257228851318,0.10295066982507706
1753234921890314800,12.848314697265625,8.786720275878906,0.8595184087753296,-0.181959331035614
1753234921906338600,12.864338623046875,7.524975776672363,1.1061211824417114,-0.29209262132644653
1753234921922375200,12.880375244140625,6.270414352416992,1.381454348564148,-0.4357447028160095
1753234921938351400,12.896351318359375,5.774814605712891,1.5298948287963867,-0.43095630407333374
1753234921954337500,12.912337646484374,5.810727596282959,1.4269442558288574,-0.38307225704193115
1753234921970355700,12.928355712890625,6.086060523986816,1.434126853942871,-0.40222588181495667
1753234921986333000,12.9443330078125,6.124367713928223,1.4676456451416016,-0.1364694982767105
1753234922002371300,12.960371337890624,6.643909931182861,1.6352397203445435,0.019153613597154617
1753234922018347300,12.97634716796875,7.350199222564697,1.5969325304031372,-0.5650315880775452
1753234922034392300,12.992392333984375,8.549694061279297,1.702277421951294,-1.2665326595306396
1753234922050363100,13.008363037109374,9.859322547912598,2.006340980529785,-1.137245774269104
1753234922066386400,13.024386474609376,10.939107894897461,2.1787235736846924,-0.7134721279144287
1753234922082421800,13.040421875,11.310209274291992,2.250549554824829,-0.4381389021873474
1753234922098454800,13.056454833984375,11.463438034057617,2.1499931812286377,-0.28969839215278625
1753234922114445300,13.0724453125,11.781867027282715,2.008735179901123,-0.08379705995321274
1753234922130410000,13.088409912109375,12.318167686462402,1.8938134908676147,-0.1173158809542656
1753234922146386200,13.10438623046875,13.084312438964844,1.9776105880737305,-0.090979665517807
1753234922162419200,13.120419189453125,13.579912185668945,1.8818424940109253,0.16759411990642548
1753234922178395400,13.1363955078125,13.383587837219238,1.577778935432434,0.5889736413955688
1753234922194382600,13.152382568359375,12.691662788391113,1.723825216293335,0.5626373887062073
1753234922210398700,13.168398681640625,12.131420135498047,1.766920804977417,0.13407529890537262
1753234922226417200,13.184417236328125,12.45463752746582,1.357512354850769,-0.42856210470199585
1753234922242453200,13.200453369140625,12.959814071655273,0.8954314589500427,-0.7948749661445618
1753234922258429400,13.216429443359376,12.741941452026367,0.7134721279144287,-0.7637503147125244
1753234922274464500,13.232464599609376,11.87763500213623,0.42616790533065796,-0.5482721924781799
1753234922290439700,13.248439697265624,10.45547866821289,-0.09816227108240128,-0.16998831927776337
1753234922306426000,13.264426025390625,9.009381294250488,-0.2992752194404602,0.06464344263076782
1753234922322460700,13.280460693359375,7.675810813903809,-0.1388636976480484,0.5554547905921936
1753234922338476800,13.296476806640625,6.998251438140869,0.011971008032560349,1.0271124839782715
1753234922354464500,13.312464599609376,7.4100542068481445,0.22505496442317963,0.5482721924781799
1753234922370445800,13.32844580078125,8.329427719116211,0.43095630407333374,-0.08619125932455063
1753234922386469600,13.3444697265625,8.875306129455566,0.5195417404174805,-0.6057330369949341
1753234922402528000,13.360528076171875,9.045293807983398,0.6536170840263367,-0.7374141216278076
1753234922418517000,13.37651708984375,8.65982723236084,0.8667010068893433,-0.26575639843940735
1753234922434523600,13.392523681640625,7.637503623962402,1.173158884048462,-0.16519992053508759
1753234922450538800,13.408538818359375,6.4164605140686035,1.3694833517074585,-0.33518823981285095
1753234922466514000,13.424513916015625,5.74129581451416,1.5275006294250488,-0.3232172429561615
1753234922482553300,13.44055322265625,5.47075080871582,1.678335428237915,-0.2561795711517334
1753234922498532000,13.456531982421875,5.6910176277160645,2.0039467811584473,-0.3471592366695404
1753234922514566100,13.472566162109375,6.746860504150391,2.205059766769409,-0.6392518281936646
1753234922530539000,13.4885390625,8.29830265045166,2.1045033931732178,-0.6991068720817566
1753234922546569500,13.504569580078124,9.813833236694336,2.0207061767578125,-0.5051765441894531
1753234922562603500,13.520603515625,10.72602367401123,1.9273324012756348,0.06703764945268631
1753234922578628400,13.53662841796875,11.221623420715332,2.051830768585205,-0.10534487664699554
1753234922594630400,13.55263037109375,11.45146656036377,1.9752163887023926,-0.6200982332229614
1753234922610615600,13.568615478515625,11.772290229797363,1.8387469053268433,-0.9026140570640564
1753234922626623700,13.584623779296875,12.18648624420166,1.8291701078414917,-1.1635819673538208
1753234922642657800,13.60065771484375,12.60547161102295,1.7764976024627686,-1.2521674633026123
1753234922658636300,13.61663623046875,12.878411293029785,1.8100165128707886,-1.2258312702178955
1753234922674631700,13.632631591796875,13.043610572814941,1.6280571222305298,-1.1085153818130493
1753234922690648300,13.6486484375,12.780248641967773,0.9097966551780701,-0.586579442024231
1753234922706671400,13.66467138671875,12.765883445739746,0.1412578970193863,0.2801215946674347
1753234922722710000,13.6807099609375,13.778631210327148,0.08619125932455063,0.7230489253997803
1753234922738690300,13.696690185546874,14.676456451416016,0.035913024097681046,0.569819986820221
1753234922754723300,13.712723388671876,14.355633735656738,0.0454898327589035,-0.1173158809542656
1753234922770690800,13.72869091796875,12.188880920410156,0.07422025501728058,-1.1180921792984009
1753234922786692900,13.74469287109375,9.251194953918457,0.07661445438861847,-1.522712230682373
1753234922802727400,13.7607275390625,6.9240312576293945,0.17717093229293823,-1.6639702320098877
1753234922818747600,13.77674755859375,5.837063789367676,0.22266076505184174,-1.3958195447921753
1753234922834736000,13.792736083984375,5.995080947875977,-0.026336219161748886,-0.395043283700943
1753234922850706200,13.8087060546875,7.580042362213135,-0.08379705995321274,0.15083470940589905
1753234922866727200,13.82472705078125,9.244012832641602,0.14844051003456116,-0.090979665517807
1753234922882762800,13.8407626953125,10.029311180114746,0.31603461503982544,-0.3758896589279175
1753234922898743600,13.85674365234375,9.682151794433594,0.6607996821403503,-0.6033388376235962
1753234922914743300,13.872743408203124,8.453926086425781,1.0319008827209473,-0.8643068075180054
1753234922930762500,13.888762451171875,6.768408298492432,1.2832920551300049,-0.5889736413955688
1753234922946739000,13.904739013671875,5.52821159362793,1.338358759880066,-0.1388636976480484
1753234922962774800,13.92077490234375,4.900930881500244,1.4197616577148438,-0.10534487664699554
1753234922978750000,13.93675,5.12119722366333,1.482010841369629,-0.33518823981285095
1753234922994780700,13.95278076171875,5.96874475479126,1.3934253454208374,-0.524330198764801
1753234923010745900,13.968745849609375,7.706935405731201,1.3886369466781616,-1.0845733880996704
1753234923026786800,13.984786865234375,9.21288776397705,1.5466543436050415,-1.1013327836990356
1753234923042820000,14.000820068359374,10.146626472473145,1.7046716213226318,-0.6751648783683777
1753234923058836200,14.016836181640626,10.280701637268066,1.6879122257232666,-0.751779317855835
1753234923074872300,14.032872314453124,10.338163375854492,1.5490485429763794,-0.8427590131759644
1753234923090854700,14.048854736328124,11.197681427001953,1.53707754611969,-0.7422025203704834
1753234923106832100,14.06483203125,12.54801082611084,1.522712230682373,-0.21787235140800476
1753234923122846500,14.080846435546874,13.718775749206543,1.7118542194366455,0.1173158809542656
1753234923138822100,14.096822265625,14.350845336914062,1.8195933103561401,-0.031124621629714966
1753234923154812000,14.11281201171875,14.21916389465332,1.702277421951294,0.040701430290937424
1753234923170826200,14.128826171875,13.534421920776367,1.4676456451416016,-0.08619125932455063
1753234923186842000,14.144842041015625,12.737153053283691,1.6950948238372803,-0.1388636976480484
1753234923202877700,14.160877685546875,12.389993667602539,1.039083480834961,0.1628057211637497
1753234923218855200,14.176855224609374,13.072340965270996,0.36152446269989014,-0.1628057211637497
1753234923234893600,14.1928935546875,12.732364654541016,0.6440402865409851,-0.5315127968788147
1753234923250862300,14.2088623046875,11.382035255432129,0.8643068075180054,-0.304063618183136
1753234923266875400,14.22487548828125,9.971850395202637,0.43335050344467163,-0.05506663769483566
1753234923282911000,14.240910888671875,8.398859977722168,-0.24420857429504395,0.08858546614646912
1753234923298928600,14.2569287109375,7.1490864753723145,-0.5291185975074768,-0.16759411990642548
1753234923314963500,14.27296337890625,6.720524311065674,-0.507570743560791,0.31364041566848755
1753234923330932500,14.288932373046874,7.560888767242432,-0.31124621629714966,0.8882488012313843
1753234923346955300,14.304955322265625,8.789113998413086,-0.009576806798577309,0.9672574996948242
1753234923362989600,14.320989501953125,9.478644371032715,0.27054479718208313,0.4668693244457245
1753234923378970000,14.33697021484375,9.828198432922363,0.5961562395095825,-0.304063618183136
1753234923394966800,14.352966796875,9.773131370544434,0.7757213711738586,-0.8786720037460327
1753234923410996000,14.368995849609375,8.698134422302246,0.7182605266571045,-0.8690952062606812
1753234923426967600,14.384967529296874,7.362170219421387,0.9217676520347595,-0.15562310814857483
1753234923443003600,14.401003662109375,6.48828649520874,1.3096283674240112,0.3734954595565796
1753234923458981600,14.416981689453126,5.963956356048584,1.6352397203445435,0.18914192914962769
1753234923475011600,14.433011474609375,5.817910194396973,1.7621324062347412,-0.2777273952960968
1753234923490978600,14.448978515625,6.557718276977539,1.7262194156646729,-0.8690952062606812
1753234923507041800,14.465041748046875,7.8960771560668945,1.6352397203445435,-0.5817909836769104
1753234923523078400,14.481078369140626,8.949525833129883,1.53707754611969,0.35434186458587646
1753234923539103500,14.497103515625,9.306262016296387,1.5873557329177856,0.5602431893348694
1753234923555099600,14.513099609375,9.210494041442871,1.8507179021835327,0.2753331959247589
1753234923571077000,14.5290771484375,9.478644371032715,2.0254945755004883,0.3519476354122162
1753234923587054000,14.54505419921875,9.545681953430176,1.6615760326385498,0.33039984107017517
1753234923603106600,14.5611064453125,9.469067573547363,1.525106430053711,-0.1843535304069519
1753234923619095600,14.577095458984376,10.615890502929688,1.6280571222305298,-0.19632454216480255
1753234923635118600,14.59311865234375,12.820950508117676,1.501164436340332,0.019153613597154617
1753234923651133200,14.60913330078125,14.935029983520508,1.5107412338256836,-0.2537853717803955
1753234923667146800,14.625146728515626,16.201562881469727,1.381454348564148,-0.3471592366695404
1753234923683179000,14.641178955078125,16.366762161254883,1.1803414821624756,-0.1388636976480484
1753234923699192600,14.657192626953124,16.180015563964844,0.8595184087753296,0.028730420395731926
1753234923715225900,14.673225830078126,15.670049667358398,0.4668693244457245,0.05746084079146385
1753234923731190800,14.689190673828126,14.630966186523438,0.023942016065120697,-0.1149216815829277
1753234923747213600,14.705213623046875,12.921506881713867,-0.2513911724090576,-0.667982280254364
1753234923763248400,14.721248291015625,10.92953109741211,-0.6272808313369751,-0.9768342971801758
1753234923779266300,14.737266357421875,9.078812599182129,-0.8547300100326538,-1.0247182846069336
1753234923795284200,14.7532841796875,7.8098859786987305,-0.7948749661445618,-1.1971008777618408
1753234923811253000,14.7692529296875,7.716512203216553,-0.5937620401382446,-0.849941611289978
1753234923827278300,14.7852783203125,7.903259754180908,-0.5123591423034668,-0.6416460275650024
1753234923843326200,14.801326171875,8.789113998413086,-0.19153612852096558,-0.2585737705230713
1753234923859312000,14.81731201171875,9.794678688049316,0.26096799969673157,-0.016759412363171577
1753234923875316000,14.83331591796875,9.832986831665039,0.6105214357376099,0.3064578175544739
1753234923891342600,14.849342529296875,8.925583839416504,0.8355764150619507,0.48602294921875
1753234923907314400,14.865314453125,7.524975776672363,1.0007762908935547,0.4884171485900879
1753234923923350000,14.88135009765625,6.191405773162842,1.1444283723831177,0.3711012601852417
1753234923939325700,14.89732568359375,5.310339450836182,1.3623007535934448,0.2346317619085312
1753234923955408600,14.91340869140625,5.216965675354004,1.3646949529647827,0.3878606855869293
1753234923971373300,14.929373291015626,5.612008571624756,1.2737152576446533,0.4429273009300232
1753234923987387400,14.945387451171875,6.299144744873047,1.2976573705673218,0.3734954595565796
1753234924003422000,14.961421875,7.297526836395264,1.4269442558288574,0.21547815203666687
1753234924019439400,14.977439453125,7.884106159210205,1.4245500564575195,0.023942016065120697
1753234924035447300,14.993447265625,7.843404769897461,1.5131354331970215,-0.16998831927776337
1753234924051428900,15.009428955078125,7.785943984985352,1.7310078144073486,-0.28730419278144836
1753234924067401700,15.025401611328125,8.463502883911133,1.9560627937316895,-0.13168109953403473
1753234924083453700,15.04145361328125,9.90241813659668,2.0901381969451904,0.019153613597154617
1753234924099442400,15.0574423828125,11.154585838317871,1.8818424940109253,0.27054479718208313
1753234924115460900,15.0734609375,12.038045883178711,1.5059528350830078,0.6560112833976746
1753234924131472400,15.089472412109375,12.368446350097656,1.3670891523361206,0.7134721279144287
1753234924147492600,15.10549267578125,12.57913589477539,1.4293384552001953,0.43095630407333374
1753234924163529000,15.121529052734376,12.713211059570312,1.2617442607879639,0.33518823981285095
1753234924179503600,15.137503662109374,12.916718482971191,1.01753568649292,0.5913678407669067
1753234924195535600,15.15353564453125,13.223176002502441,0.9169792532920837,0.6392518281936646
1753234924211502600,15.169502685546876,13.895946502685547,0.7469909191131592,0.47884035110473633
1753234924227476700,15.185476806640626,14.599842071533203,0.6129156351089478,0.31842881441116333
1753234924243515600,15.201515625,13.872004508972168,0.8044517636299133,0.2561795711517334
1753234924259535000,15.21753515625,12.155362129211426,0.7709329724311829,0.26096799969673157
1753234924275523800,15.23352392578125,10.35252857208252,0.33997663855552673,0.6057330369949341
1753234924291490800,15.24949072265625,8.83939266204834,0.0454898327589035,1.237802267074585
1753234924307514000,15.26551416015625,7.9631147384643555,-0.19632454216480255,1.3766659498214722
1753234924323550500,15.281550537109375,7.824251174926758,-0.1867477297782898,1.5083470344543457
1753234924339532500,15.297532470703125,8.394071578979492,0.12689268589019775,1.137245774269104
1753234924355583000,15.3135830078125,9.090784072875977,0.3902548849582672,0.047884032130241394
1753234924371604000,15.32960400390625,9.718064308166504,0.7182605266571045,-0.7733271718025208
1753234924387576300,15.345576416015625,9.713275909423828,0.9864110946655273,-0.9768342971801758
1753234924403628500,15.361628662109375,9.184157371520996,1.0031704902648926,-0.8475474119186401
1753234924419615500,15.377615478515626,8.111555099487305,0.950498104095459,-0.6033388376235962
1753234924435648500,15.3936484375,6.823474884033203,1.2066776752471924,0.09576806426048279
1753234924451617800,15.40961767578125,5.7556610107421875,1.4389152526855469,0.2537853717803955
1753234924467635700,15.4256357421875,5.106832027435303,1.558625340461731,-0.07661445438861847
1753234924483646000,15.44164599609375,5.781997203826904,1.680729627609253,-0.5913678407669067
1753234924499665200,15.4576650390625,6.933608055114746,1.8483237028121948,-0.8738836050033569
1753234924515651600,15.473651611328124,8.209717750549316,1.867477297782898,-0.42616790533065796
1753234924531619000,15.489619140625,9.258378028869629,1.7070658206939697,-0.06224924325942993
1753234924547595300,15.50559521484375,9.734824180603027,1.678335428237915,-0.12928688526153564
1753234924563647000,15.52164697265625,9.859322547912598,1.8531121015548706,-0.23942017555236816
1753234924579640300,15.537640380859376,10.125079154968262,1.9608511924743652,-0.30885201692581177
1753234924595648000,15.55364794921875,10.934319496154785,1.8602946996688843,-0.49559974670410156
1753234924611677400,15.569677490234374,11.839327812194824,1.8387469053268433,-0.49799394607543945
1753234924627722000,15.585721923828125,12.655750274658203,1.9800047874450684,-0.5315127968788147
1753234924643757300,15.60175732421875,13.136984825134277,2.0015525817871094,-0.7254431247711182
1753234924659738000,15.617738037109374,13.376404762268066,2.073378562927246,-0.7589619159698486
1753234924675778300,15.6337783203125,13.326127052307129,2.0254945755004883,-0.6320692300796509
1753234924691746300,15.649746337890624,13.69962215423584,1.5514427423477173,-0.19632454216480255
1753234924707719700,15.6657197265625,14.590265274047852,1.0127472877502441,0.4357447028160095
1753234924723756300,15.68175634765625,15.193603515625,0.5506663918495178,0.8259995579719543
1753234924739781600,15.69778173828125,14.262259483337402,-0.16519992053508759,0.6392518281936646
1753234924755774200,15.713774169921875,12.327744483947754,-0.4189853072166443,0.1388636976480484
1753234924771743000,15.729742919921875,10.32858657836914,-0.33758243918418884,-0.38546648621559143
1753234924787766300,15.745766357421875,8.611943244934082,-0.3208230137825012,-0.5817909836769104
1753234924803802000,15.761802001953125,7.4100542068481445,-0.395043283700943,-0.6129156351089478
1753234924819778000,15.777778076171876,6.813898086547852,-0.2968810200691223,-0.47644615173339844
1753234924835762400,15.793762451171874,7.29034423828125,0.038307227194309235,0.043095629662275314
1753234924851776800,15.80977685546875,8.085219383239746,0.12210428714752197,0.22266076505184174
1753234924867753000,15.8257529296875,8.762778282165527,0.24660277366638184,0.181959331035614
1753234924883808500,15.84180859375,9.083600997924805,0.49799394607543945,0.11252748221158981
1753234924899792600,15.857792724609375,9.097966194152832,0.8882488012313843,-0.019153613597154617
1753234924915847200,15.87384716796875,8.774748802185059,1.3551181554794312,-0.26336219906806946
1753234924931829500,15.88982958984375,8.042123794555664,1.4748282432556152,-0.09816227108240128
1753234924947846000,15.905845947265625,6.955155849456787,1.4077905416488647,-0.3495534360408783
1753234924963885000,15.921885009765624,6.172252178192139,1.5873557329177856,-0.5363011956214905
1753234924979905500,15.937905517578125,6.189011573791504,1.522712230682373,-0.272938996553421
1753234924995894500,15.95389453125,6.675034523010254,1.6543933153152466,-0.1843535304069519
1753234925011861500,15.969861572265625,7.453149795532227,1.721431016921997,-0.2944868206977844
1753234925027841000,15.985841064453124,8.339004516601562,1.7501614093780518,-0.3998316824436188
1753234925043901000,16.00190087890625,8.87051773071289,2.0853497982025146,-0.3495534360408783
1753234925059884800,16.017884765625,9.253589630126953,2.4636335372924805,-0.4381389021873474
1753234925075895300,16.033895263671877,9.974244117736816,2.5665841102600098,-0.4357447028160095
1753234925091924700,16.0499248046875,10.666168212890625,2.250549554824829,-0.17717093229293823
1753234925107945700,16.06594580078125,10.977415084838867,2.1571757793426514,-0.002394201699644327
1753234925123981600,16.081981689453126,11.279084205627441,1.965639591217041,0.24420857429504395
1753234925139974100,16.09797412109375,11.750741958618164,1.5131354331970215,0.4357447028160095
1753234925156017700,16.114017578125,12.224793434143066,1.278503656387329,0.17956513166427612
1753234925171990800,16.12999072265625,12.301408767700195,0.9864110946655273,0.023942016065120697
1753234925187966200,16.14596630859375,12.287043571472168,0.5363011956214905,0.009576806798577309
1753234925204002300,16.162002197265625,12.751518249511719,0.3423708379268646,-0.33997663855552673
1753234925220023600,16.1780234375,13.201627731323242,0.2753331959247589,-0.730231523513794
1753234925236049000,16.194048828125,13.182474136352539,0.5339069962501526,-0.7469909191131592
1753234925252019500,16.21001953125,12.301408767700195,0.7924807667732239,-0.586579442024231
1753234925268046800,16.226046875,11.085153579711914,0.5003881454467773,-0.1628057211637497
1753234925284086000,16.2420859375,9.696516990661621,0.011971008032560349,0.45250412821769714
1753234925300069400,16.2580693359375,8.81784439086914,-0.2753331959247589,1.0965443849563599
1753234925316068000,16.274068115234375,8.686163902282715,-0.2322375625371933,1.3192051649093628
1753234925332102000,16.290101806640624,9.172186851501465,0.035913024097681046,1.1635819673538208
1753234925348078600,16.30607861328125,9.710882186889648,0.2106897532939911,0.7589619159698486
1753234925364136200,16.32213623046875,10.074800491333008,0.4692635238170624,-0.07422025501728058
1753234925380130600,16.338130615234373,9.93593692779541,0.9409212470054626,-0.9744400978088379
1753234925395260200,16.35326025390625,9.457097053527832,1.05105459690094,-1.3742717504501343
1753234925411239200,16.3692392578125,8.901641845703125,0.9816226959228516,-0.9265560507774353
1753234925427259100,16.385259033203123,8.178592681884766,0.9624691009521484,-0.21547815203666687
1753234925443316000,16.40131591796875,7.469909191131592,1.2737152576446533,0.3687070608139038
1753234925459336400,16.41733642578125,6.6127848625183105,1.623268723487854,0.009576806798577309
1753234925475323100,16.4333232421875,5.808333396911621,1.7932571172714233,-0.7422025203704834
1753234925491288600,16.44928857421875,5.779603004455566,2.0231003761291504,-0.9241618514060974
1753234925507267000,16.46526708984375,6.766014099121094,2.2146365642547607,-0.7015010714530945
1753234925523305700,16.4813056640625,8.26478385925293,2.185906171798706,-0.33039984107017517
1753234925539291100,16.497291015625,9.823410034179688,1.9536685943603516,0.038307227194309235
1753234925555283000,16.513282958984377,11.092336654663086,1.7741034030914307,-0.2322375625371933
1753234925571304000,16.529303955078124,11.408370971679688,1.745373010635376,-0.6727706789970398
1753234925587322000,16.545322021484374,11.216835021972656,1.53707754611969,-0.47165772318840027
1753234925603366100,16.5613662109375,11.207258224487305,1.6615760326385498,-0.4141969084739685
1753234925619406800,16.57740673828125,11.379640579223633,1.8315643072128296,-0.5817909836769104
1753234925635444000,16.59344384765625,12.15296745300293,1.86508309841156,-1.2449848651885986
1753234925651410400,16.609410400390626,12.222399711608887,1.8746598958969116,-1.0295066833496094
1753234925667382800,16.6253828125,11.923124313354492,1.8986018896102905,-0.6967126727104187
1753234925683420400,16.64142041015625,11.616666793823242,1.8339585065841675,-0.569819986820221
1753234925699441000,16.65744091796875,11.930307388305664,1.3982137441635132,-0.36152446269989014
1753234925715448600,16.673448486328127,12.99812126159668,0.9050082564353943,0.19153612852096558
1753234925731419000,16.6894189453125,13.996502876281738,0.3687070608139038,0.4620809257030487
1753234925747443500,16.705443359375,14.101847648620605,0.031124621629714966,0.2298433631658554
1753234925763480600,16.72148046875,13.120224952697754,-0.08858546614646912,-0.07422025501728058
1753234925779460000,16.737460205078126,11.350910186767578,-0.014365210197865963,-0.33758243918418884
1753234925795450400,16.753450439453125,9.246406555175781,0.06224924325942993,-0.42377370595932007
1753234925811439400,16.769439453125,7.608773231506348,0.12928688526153564,-0.6200982332229614
1753234925827416600,16.78541650390625,6.72531270980835,0.31364041566848755,-0.395043283700943
1753234925843453400,16.801453369140624,6.517016887664795,0.586579442024231,0.031124621629714966
1753234925859430400,16.817430419921877,6.739677906036377,0.7326257228851318,0.5386953949928284
1753234925875464200,16.833464111328126,7.280767440795898,0.7661445140838623,0.6943184733390808
1753234925891433700,16.849433837890626,8.034940719604492,0.7206547260284424,0.36152446269989014
1753234925907456000,16.8654560546875,8.62391471862793,0.7972691655158997,-0.3016694188117981
1753234925923510800,16.8815107421875,8.765172004699707,1.0319008827209473,-0.6009446382522583
1753234925939540700,16.897540771484376,8.274360656738281,1.094150185585022,-0.35673606395721436
1753234925955528200,16.913528076171875,7.105990409851074,1.2330138683319092,-0.4189853072166443
1753234925971497700,16.929497802734375,5.870582580566406,1.359906554222107,-0.4572925269603729
1753234925987481000,16.945481201171877,5.243301868438721,1.5298948287963867,-0.6153098344802856
1753234926003522800,16.961522705078124,5.803544998168945,1.647210717201233,-0.9026140570640564
1753234926019505200,16.977505126953126,7.42681360244751,1.7693150043487549,-1.0247182846069336
1753234926035496200,16.99349609375,8.825027465820312,1.8794482946395874,-0.9624691009521484
1753234926051520800,17.009520751953126,9.624691009521484,1.9297266006469727,-0.5746083855628967
1753234926067544000,17.0255439453125,10.287884712219238,2.0853497982025146,-0.17956513166427612
1753234926083596000,17.041595947265623,10.917559623718262,2.2194249629974365,-0.4357447028160095
1753234926099584500,17.05758447265625,11.434707641601562,2.3032219409942627,-0.2825157940387726
1753234926115659300,17.0736591796875,12.088324546813965,2.427720546722412,-0.2298433631658554
1753234926131628300,17.089628173828125,12.552799224853516,2.2361843585968018,0.1173158809542656
1753234926147602700,17.105602783203125,12.933477401733398,1.922544002532959,0.26815059781074524
1753234926163639300,17.121639404296875,13.026851654052734,1.5634137392044067,-0.09576806426048279
1753234926179658500,17.137658447265625,12.854469299316406,1.1252747774124146,-0.35673606395721436
1753234926195651600,17.153651611328126,13.170503616333008,0.4118026793003082,-0.6129156351089478
1753234926211621400,17.169621337890625,14.4226713180542,0.090979665517807,-1.113303780555725
1753234926227645400,17.1856455078125,16.04115104675293,0.1364694982767105,-1.4437036514282227
1753234926243684900,17.201684814453124,16.352397918701172,0.22744916379451752,-0.7158663272857666
1753234926259667500,17.21766748046875,14.118607521057129,0.28730419278144836,-0.4572925269603729
1753234926275655400,17.233655517578125,11.207258224487305,-0.12928688526153564,-0.21308395266532898
1753234926291673300,17.24967333984375,8.609549522399902,-0.42377370595932007,0.6943184733390808
1753234926307650600,17.265650634765624,6.687005519866943,-0.19393034279346466,1.7884687185287476
1753234926323689700,17.281689697265627,5.96874475479126,0.17238251864910126,2.22660756111145
1753234926339671300,17.29767138671875,6.4595561027526855,0.30885201692581177,1.6519991159439087
1753234926355709000,17.313708984375,7.630321025848389,0.42856210470199585,0.2968810200691223
1753234926371683000,17.32968310546875,8.832210540771484,0.6823474764823914,-1.1563993692398071
1753234926387705900,17.345705810546875,9.739612579345703,1.1252747774124146,-1.455674648284912
1753234926403742700,17.36174267578125,9.193734169006348,0.8667010068893433,-0.9385270476341248
1753234926419769300,17.377769287109373,7.733271598815918,0.5386953949928284,-0.7996633648872375
1753234926435764500,17.393764404296874,6.217741966247559,0.706289529800415,-0.6272808313369751
1753234926451736800,17.40973681640625,5.231330871582031,1.2114660739898682,-0.4620809257030487
1753234926467717000,17.425717041015623,4.766855716705322,1.6663644313812256,-0.5195417404174805
1753234926483759400,17.44175927734375,4.627991676330566,1.7884687185287476,-0.40940847992897034
1753234926499742200,17.4577421875,5.173870086669922,1.889025092124939,-0.4381389021873474
1753234926515736000,17.473736083984374,6.641515731811523,1.8100165128707886,-0.35673606395721436
1753234926531756000,17.489756103515624,8.920795440673828,1.843535304069519,-0.524330198764801
1753234926547781000,17.505781005859376,10.84094524383545,2.008735179901123,-0.5913678407669067
1753234926563820500,17.521820556640623,11.99255657196045,1.8579005002975464,-0.4357447028160095
1753234926579801300,17.53780126953125,12.030863761901855,1.647210717201233,-0.7805097699165344
1753234926595872000,17.5538720703125,11.307814598083496,1.7118542194366455,-0.9720458984375
1753234926611860500,17.569860595703126,10.833763122558594,1.8818424940109253,-1.235408067703247
1753234926627850200,17.585850341796874,10.83855152130127,2.0614075660705566,-1.53707754611969
1753234926643911700,17.60191162109375,11.183316230773926,2.0231003761291504,-1.8267759084701538
1753234926659952600,17.61795263671875,11.401188850402832,1.7357962131500244,-1.5849615335464478
1753234926675970300,17.63397021484375,11.760318756103516,1.2042834758758545,-1.161187767982483
1753234926691946000,17.649946044921876,13.057975769042969,0.5123591423034668,-1.0127472877502441
1753234926707977700,17.665977783203125,14.870387077331543,-0.08858546614646912,-0.33039984107017517
1753234926724020200,17.682020263671873,16.012420654296875,-0.3471592366695404,-0.35913026332855225
1753234926740006100,17.698006103515624,16.012420654296875,-0.45250412821769714,-1.2042834758758545
1753234926756001500,17.71400146484375,14.604630470275879,-0.6655880808830261,-1.8195933103561401
1753234926772026000,17.730026123046876,12.09311294555664,-0.790086567401886,-2.056619167327881
1753234926788009500,17.746009521484375,9.53849983215332,-0.7661445140838623,-1.7956513166427612
1753234926804054300,17.76205419921875,7.642292022705078,-0.4812345504760742,-1.2449848651885986
1753234926820040700,17.778040771484374,6.773196697235107,-0.31842881441116333,-0.3256114423274994
1753234926836082000,17.79408203125,6.687005519866943,-0.1604115068912506,0.05267243832349777
1753234926852055800,17.810055908203125,7.515398979187012,0.028730420395731926,-0.07422025501728058
1753234926868103000,17.82610302734375,8.592789649963379,0.2968810200691223,-0.0071826050989329815
1753234926884146400,17.842146484375,9.284713745117188,0.6200982332229614,-0.09576806426048279
1753234926900177700,17.858177734375,9.497797966003418,0.7996633648872375,-0.16519992053508759
1753234926916195600,17.874195556640625,8.83939266204834,1.05105459690094,-0.6416460275650024
1753234926932182000,17.89018212890625,7.714118003845215,1.213860273361206,-0.5386953949928284
1753234926948168700,17.906168701171875,6.370970726013184,1.1779472827911377,0.009576806798577309
1753234926964214500,17.922214599609376,5.341464042663574,1.2617442607879639,-0.14844051003456116
1753234926980199400,17.938199462890626,5.027823448181152,1.4508862495422363,-0.5099649429321289
1753234926996194000,17.954194091796875,5.612008571624756,1.5514427423477173,-1.1444283723831177
1753234927012217000,17.970217041015626,7.735665798187256,1.5394717454910278,-1.723825216293335
1753234927028241700,17.98624169921875,9.964667320251465,1.6376339197158813,-1.6687586307525635
1753234927044285200,18.00228515625,10.776301383972168,1.6352397203445435,-0.7086837291717529
1753234927060265200,18.01826513671875,10.36449909210205,1.580173134803772,-0.19871874153614044
1753234927076314600,18.034314697265625,10.165780067443848,1.5490485429763794,-0.31842881441116333
1753234927092303000,18.05030322265625,10.56800651550293,1.41257905960083,-0.05267243832349777
1753234927108310500,18.066310546875,11.432312965393066,1.3239935636520386,0.45250412821769714
1753234927124352000,18.08235205078125,12.459425926208496,1.4221558570861816,0.35434186458587646
1753234927140376600,18.09837646484375,13.584700584411621,1.479616641998291,-0.09816227108240128
1753234927156372700,18.114372802734376,13.843274116516113,1.3072341680526733,-0.090979665517807
1753234927172342300,18.13034228515625,12.959814071655273,1.2976573705673218,0.5961562395095825
1753234927188366300,18.146366455078127,12.270283699035645,1.558625340461731,0.23942017555236816
1753234927204402200,18.162402099609373,12.267889976501465,0.7972691655158997,-0.2298433631658554
1753234927220385800,18.1783857421875,13.412318229675293,0.26575639843940735,-1.1276689767837524
1753234927236380400,18.19438037109375,14.745888710021973,0.3447650372982025,-1.414973258972168
1753234927252402000,18.21040185546875,13.958195686340332,0.2585737705230713,-0.7972691655158997
1753234927268381200,18.226381103515624,12.083536148071289,0.0454898327589035,-0.7493851184844971
1753234927284420400,18.24242041015625,10.098742485046387,-0.3064578175544739,-0.43335050344467163
1753234927300398300,18.2583984375,8.329427719116211,-0.5410895943641663,0.13168109953403473
1753234927316484000,18.274484130859374,7.230489253997803,-0.47165772318840027,0.5578489899635315
1753234927332456400,18.29045654296875,6.952761650085449,-0.1867477297782898,0.7852981686592102
1753234927348505300,18.30650537109375,7.417236804962158,0.1388636976480484,0.40462008118629456
1753234927364545300,18.322545166015626,8.343792915344238,0.363918662071228,-0.15322890877723694
1753234927380584700,18.338584716796873,8.9064302444458,0.5650315880775452,-0.545877993106842
1753234927396599800,18.354599853515627,8.793902397155762,0.730231523513794,-0.9481038451194763
1753234927412589600,18.370589599609374,8.178592681884766,0.8188169598579407,-0.8690952062606812
1753234927428575200,18.3865751953125,6.983886241912842,0.8403648138046265,-0.3208230137825012
1753234927444615000,18.402614990234376,5.896918773651123,1.0582371950149536,0.17477671802043915
1753234927460594400,18.418594482421874,5.04218864440918,1.4437036514282227,0.181959331035614
1753234927476585200,18.434585205078125,4.5394062995910645,1.7357962131500244,-0.23702596127986908
1753234927492604200,18.450604248046876,4.7836151123046875,1.9488801956176758,-0.586579442024231
1753234927508627000,18.466626953125,5.640739440917969,2.0661959648132324,-0.5793967843055725
1753234927524666600,18.48266650390625,7.220912456512451,2.1284453868865967,-0.5722141861915588
1753234927540673500,18.498673583984374,9.150638580322266,2.0901381969451904,-0.689530074596405
1753234927556711700,18.514711669921876,10.967838287353516,2.169146776199341,-0.35434186458587646
1753234927572685800,18.530685791015625,12.279860496520996,2.0207061767578125,-0.033518824726343155
1753234927588664000,18.5466640625,12.557587623596191,1.7286136150360107,-0.7493851184844971
1753234927604663000,18.5626630859375,12.279860496520996,1.5921441316604614,-1.3838485479354858
1753234927620685800,18.578685791015626,12.401965141296387,1.7597382068634033,-2.0925323963165283
1753234927636686600,18.5946865234375,12.717999458312988,1.9033904075622559,-2.2864625453948975
1753234927652659500,18.610659423828125,12.897564888000488,1.8986018896102905,-1.525106430053711
1753234927668688000,18.62668798828125,12.768278121948242,1.8052281141281128,-1.0271124839782715
1753234927684731000,18.64273095703125,12.521675109863281,1.3742717504501343,-0.8762778043746948
1753234927700711000,18.6587109375,12.947842597961426,0.5267243981361389,-0.5937620401382446
1753234927716702000,18.674701904296874,13.84566879272461,-0.06464344263076782,-0.2322375625371933
1753234927732722400,18.690722412109373,14.31014347076416,-0.1628057211637497,-0.07182604819536209
1753234927748707800,18.706707763671876,14.410699844360352,-0.15322890877723694,-0.6512228846549988
1753234927764739000,18.722739013671877,13.57512378692627,-0.3687070608139038,-0.9792284965515137
1753234927780758000,18.738758056640624,11.341333389282227,-0.43095630407333374,-1.0893617868423462
1753234927796796400,18.75479638671875,9.255983352661133,-0.3280056416988373,-1.3192051649093628
1753234927812769800,18.770769775390626,7.805097579956055,-0.05267243832349777,-1.4413094520568848
1753234927828829400,18.786829345703126,7.206547260284424,0.21787235140800476,-0.8738836050033569
1753234927844875800,18.802875732421874,7.371747016906738,0.44771572947502136,-0.05506663769483566
1753234927860903400,18.8189033203125,7.762001991271973,0.5315127968788147,0.22505496442317963
1753234927877013000,18.835012939453126,7.922413349151611,0.5913678407669067,0.08858546614646912
1753234927893002500,18.85100244140625,7.577648162841797,0.7829039692878723,-0.3974374830722809
1753234927908987100,18.866987060546876,7.223306655883789,0.8331822156906128,-0.6009446382522583
1753234927925027800,18.88302783203125,7.005434036254883,0.9265560507774353,-0.27054479718208313
1753234927941010200,18.89901025390625,6.789956092834473,1.3024457693099976,-0.011971008032560349
1753234927957002200,18.915002197265625,6.428431510925293,1.4532804489135742,0.002394201699644327
1753234927973021200,18.931021240234376,6.00226354598999,1.3694833517074585,-0.26575639843940735
1753234927989045500,18.94704541015625,6.064512729644775,1.4867992401123047,-0.6105214357376099
1753234928005084400,18.96308447265625,6.9240312576293945,1.8076223134994507,-0.7972691655158997
1753234928021063700,18.979063720703124,8.214506149291992,1.9800047874450684,-1.0055646896362305
1753234928037103400,18.995103271484375,9.095572471618652,2.027888774871826,-0.9241618514060974
1753234928053082000,19.01108203125,9.75397777557373,2.33913516998291,-1.1276689767837524
1753234928069102800,19.027102783203127,10.618284225463867,2.4684219360351562,-0.9720458984375
1753234928085155300,19.0431552734375,11.489773750305176,2.2170307636260986,-0.5937620401382446
1753234928101215500,19.059215576171876,12.133813858032227,2.140416383743286,-0.24660277366638184
1753234928117214000,19.0752138671875,12.653355598449707,2.248155355453491,-0.07182604819536209
1753234928133185300,19.091185302734374,12.797008514404297,2.2625205516815186,-0.4812345504760742
1753234928149214000,19.1072138671875,12.552799224853516,2.070984363555908,-0.5578489899635315
1753234928165252000,19.123252197265625,12.526463508605957,1.8100165128707886,-0.5051765441894531
1753234928181232000,19.139232177734375,12.76109504699707,1.3072341680526733,-0.4405331015586853
1753234928197221400,19.155221435546874,13.259089469909668,0.8427590131759644,-0.5817909836769104
1753234928213237200,19.1712373046875,13.922283172607422,0.7015010714530945,-0.7757213711738586
1753234928229213700,19.187213623046876,13.93664836883545,0.8882488012313843,-1.0319008827209473
1753234928245253600,19.203253662109375,12.945448875427246,0.8188169598579407,-1.070208191871643
1753234928261233400,19.2192333984375,11.461043357849121,0.49559974670410156,-0.6775590777397156
1753234928277268200,19.235268310546875,9.8784761428833,0.2346317619085312,-0.08379705995321274
1753234928293237200,19.2512373046875,8.192957878112793,0.2825157940387726,0.3711012601852417
1753234928309256200,19.267256103515624,6.811503887176514,0.3926490843296051,0.5410895943641663
1753234928325293300,19.283293212890626,6.385335922241211,0.4692635238170624,0.3256114423274994
1753234928341313800,19.299313720703125,6.766014099121094,0.5722141861915588,0.016759412363171577
1753234928357350400,19.315350341796876,7.644686222076416,0.6823474764823914,-0.4692635238170624
1753234928373336600,19.331336669921875,8.62630844116211,0.6416460275650024,-0.8882488012313843
1753234928389322800,19.34732275390625,9.198522567749023,0.7230489253997803,-0.8259995579719543
1753234928405371600,19.36337158203125,8.904036521911621,0.8978256583213806,-0.28730419278144836
1753234928421364500,19.379364501953123,7.618350028991699,1.015141487121582,-0.26096799969673157
1753234928437355300,19.395355224609375,6.200982570648193,1.2473790645599365,-0.5913678407669067
1753234928453376800,19.411376708984374,5.238513469696045,1.6089035272598267,-0.6560112833976746
1753234928469401300,19.4274013671875,4.809951305389404,1.86508309841156,-0.7398083209991455
1753234928485411600,19.44341162109375,5.4013190269470215,2.1571757793426514,-0.8786720037460327
1753234928501393700,19.4593935546875,7.053318023681641,2.298433542251587,-0.9074024558067322
1753234928517429200,19.47542919921875,8.968679428100586,2.0159177780151367,-0.3663128614425659
1753234928533397200,19.491397216796877,10.620678901672363,2.0015525817871094,-0.15801730751991272
1753234928549420300,19.507420166015624,11.695674896240234,2.410961151123047,0.05506663769483566
1753234928565457200,19.52345703125,11.4849853515625,2.6671407222747803,0.06464344263076782
1753234928581505000,19.539505126953124,11.259930610656738,2.8562827110290527,-0.21787235140800476
1753234928597511400,19.555511474609375,11.75792407989502,2.853888511657715,-1.113303780555725
1753234928613479700,19.571479736328126,12.816162109375,2.8155810832977295,-1.659181833267212
1753234928629503500,19.58750341796875,13.582305908203125,2.8227639198303223,-1.6089035272598267
1753234928645545700,19.603545654296877,13.886369705200195,2.8179752826690674,-1.4317326545715332
1753234928661546200,19.619546142578123,13.419500350952148,2.5258827209472656,-1.2449848651885986
1753234928677539300,19.635539306640624,13.625401496887207,1.7310078144073486,-1.0342950820922852
1753234928693556700,19.651556640625,14.386757850646973,0.8259995579719543,-0.26815059781074524
1753234928709529900,19.66752978515625,15.097835540771484,0.3256114423274994,0.14365209639072418
1753234928725590000,19.683590087890625,14.877569198608398,-0.033518824726343155,-0.38546648621559143
1753234928741572600,19.699572509765623,13.187262535095215,-0.16519992053508759,-1.0319008827209473
1753234928757609500,19.715609375,10.630255699157715,-0.11252748221158981,-1.3958195447921753
1753234928773579800,19.731579833984377,8.271966934204102,-0.0694318488240242,-1.3623007535934448
1753234928789597400,19.747597412109375,6.739677906036377,-0.014365210197865963,-1.2641384601593018
1753234928805636600,19.76363671875,6.337451934814453,0.15562310814857483,-0.9265560507774353
1753234928821656600,19.779656494140625,7.261613845825195,0.3447650372982025,-0.33518823981285095
1753234928837696500,19.795696533203124,8.403648376464844,0.5386953949928284,-0.07900865375995636
1753234928853671700,19.811671630859376,8.829815864562988,0.7637503147125244,0.20350714027881622
1753234928869653200,19.8276533203125,8.571242332458496,1.05105459690094,0.11252748221158981
1753234928885716000,19.843716064453126,7.857769966125488,1.4724340438842773,-0.4668693244457245
1753234928901774800,19.85977490234375,7.180211067199707,1.7573440074920654,-0.569819986820221
1753234928917765600,19.875765625,6.411672115325928,1.7884687185287476,-0.035913024097681046
1753234928933842700,19.8918427734375,5.525817394256592,1.8507179021835327,-0.033518824726343155
1753234928949868500,19.90786865234375,4.711789131164551,1.9847931861877441,-0.23942017555236816
1753234928965910300,19.92391015625,4.721365928649902,2.1739351749420166,-0.31603461503982544
1753234928981888500,19.939888427734374,5.846640586853027,2.2864625453948975,-0.40940847992897034
1753234928997929700,19.9559296875,7.548917770385742,2.2912509441375732,-0.5171475410461426
1753234929013920000,19.971919921875,9.006986618041992,2.5234885215759277,-0.6823474764823914
1753234929029954800,19.987954833984375,9.979032516479492,2.5761611461639404,-0.8451532125473022
1753234929045991400,20.003991455078125,10.6925048828125,2.612074136734009,-0.6416460275650024
1753234929061972000,20.019971923828123,11.192893028259277,2.8347349166870117,-0.3663128614425659
1753234929078050000,20.036050048828123,11.185709953308105,2.8874073028564453,-0.14604631066322327
1753234929094032400,20.052032470703125,11.30063247680664,2.9089550971984863,-0.22266076505184174
1753234929110053600,20.0680537109375,11.745953559875488,2.7533318996429443,-0.08140286058187485
1753234929126128000,20.084128173828127,12.361263275146484,2.4803929328918457,-0.004788403399288654
1753234929142105600,20.100105712890624,12.94066047668457,2.207453966140747,0.1628057211637497
1753234929158096100,20.11609619140625,13.103466033935547,1.8842366933822632,0.5219359993934631
1753234929174114000,20.132114013671874,13.086706161499023,1.6735470294952393,0.5267243981361389
1753234929190090000,20.148090087890626,13.663708686828613,1.6519991159439087,-0.09576806426048279
1753234929206128600,20.164128662109373,14.233529090881348,1.5753847360610962,-0.06703764945268631
1753234929222119400,20.180119384765625,13.883975982666016,1.5753847360610962,0.06703764945268631
1753234929238156300,20.19615625,12.033257484436035,1.6352397203445435,-0.27054479718208313
1753234929254126600,20.212126708984375,10.110713958740234,1.0845733880996704,-0.19153612852096558
1753234929270147600,20.228147705078126,8.274360656738281,0.4812345504760742,0.4429273009300232
1753234929286187500,20.2441875,7.115567684173584,0.3926490843296051,0.8475474119186401
1753234929302169600,20.260169677734375,7.113173484802246,0.5985504388809204,0.8595184087753296
1753234929318161700,20.27616162109375,7.979874134063721,0.8092401623725891,0.7158663272857666
1753234929334141200,20.29214111328125,8.710105895996094,0.993593692779541,-0.043095629662275314
1753234929350124300,20.308124267578126,9.107542991638184,1.280897855758667,-0.6751648783683777
1753234929366178800,20.3241787109375,9.30386734008789,1.5849615335464478,-1.1971008777618408
1753234929382174000,20.340174072265626,8.695740699768066,1.558625340461731,-1.2042834758758545
1753234929398181600,20.356181640625,7.529764175415039,1.436521053314209,-0.993593692779541
