time,seconds_elapsed,z,y,x
1747275440918546400,0.06754638671875,0.09277153015136719,-0.0022140294313430786,0.0014714822173118591
1747275440934578000,0.083577880859375,0.09276962280273438,0.016843289136886597,0.011047475039958954
1747275440950592300,0.09959228515625,0.08797836303710938,0.02622722089290619,0.006257511675357819
1747275440966611200,0.115611083984375,0.10466861724853516,0.014908716082572937,0.020742177963256836
1747275440982604800,0.131604736328125,0.09269428253173828,0.014715805649757385,0.006375469267368317
1747275440998677000,0.147677001953125,0.09981155395507812,0.0037521570920944214,0.022176362574100494
1747275441014715100,0.163715087890625,0.10220146179199219,-0.010806426405906677,0.010203950107097626
1747275441030732000,0.17973193359375,0.0998077392578125,-0.0013268589973449707,-0.0018163472414016724
1747275441046778400,0.1957783203125,0.0950174331665039,-0.01583579182624817,-0.00899825245141983
1747275441062800000,0.2117998046875,0.0926218032836914,0.008107304573059082,0.019733533263206482
1747275441078862800,0.22786279296875,0.0878286361694336,-0.008941546082496643,0.005415000021457672
1747275441094897700,0.243897705078125,0.09022045135498047,-0.011480957269668579,0.019923768937587738
1747275441110915800,0.259915771484375,0.09979629516601562,-0.023404046893119812,-0.008662804961204529
1747275441126922500,0.275922607421875,0.10219097137451172,0.0029786378145217896,-0.003924548625946045
1747275441142925000,0.291925048828125,0.104583740234375,-0.016173377633094788,-0.00377858430147171
1747275441158950700,0.30795068359375,0.10697650909423828,-0.011433586478233337,0.005845598876476288
1747275441174987000,0.323987060546875,0.10697650909423828,0.01734425127506256,0.0059408098459243774
1747275441191007700,0.3400078125,0.09260940551757812,0.0052277445793151855,0.010631129145622253
1747275441207055400,0.356055419921875,0.09500408172607422,-0.016319528222084045,-0.018098585307598114
1747275441223051300,0.37205126953125,0.09261322021484375,-0.01378205418586731,-0.006224140524864197
1747275441239123200,0.388123291015625,0.09021854400634766,-0.018570780754089355,0.010582499206066132
1747275441255191800,0.40419189453125,0.08543014526367188,0.002880692481994629,0.0033037662506103516
1747275441271212000,0.4202119140625,0.11176490783691406,-0.004396781325340271,0.00809246301651001
1747275441287252000,0.436251953125,0.10697746276855469,-0.004299581050872803,0.008045785129070282
1747275441303254800,0.4522548828125,0.10219097137451172,-0.01138468086719513,-0.013499923050403595
1747275441319312000,0.468311767578125,0.08303546905517578,-0.01866339147090912,-0.008663475513458252
1747275441335341300,0.48434130859375,0.08782100677490234,-0.011719465255737305,-0.008662104606628418
1747275441351361000,0.500361083984375,0.1021890640258789,-0.009084969758987427,-0.01105526089668274
1747275441367368200,0.5163681640625,0.08782005310058594,-0.002045348286628723,-0.006025582551956177
1747275441383360500,0.532360595703125,0.09021282196044922,0.017108216881752014,-0.005977705121040344
1747275441399392800,0.548392822265625,0.10697174072265625,-0.014015138149261475,0.0059945061802864075
1747275441415431200,0.56443115234375,0.10458087921142578,-0.01152445375919342,0.020264536142349243
1747275441431452200,0.5804521484375,0.06866836547851562,0.005331709980964661,0.0012076273560523987
1747275441447531000,0.596531005859375,0.10458087921142578,-0.02105267345905304,-0.00836927443742752
1747275441463539200,0.612539306640625,0.10457897186279297,0.005139648914337158,-0.01081077754497528
1747275441479610000,0.628610107421875,0.10697174072265625,0.012227311730384827,-0.006020769476890564
1747275441495648300,0.644648193359375,0.08781814575195312,-0.004481598734855652,0.0012609511613845825
1747275441511670000,0.660669921875,0.09978866577148438,-0.006973922252655029,0.003508523106575012
1747275441527718100,0.67671826171875,0.08542633056640625,-0.01640622317790985,-0.006116367876529694
1747275441543736300,0.692736328125,0.1213388442993164,-0.004434168338775635,0.005856022238731384
1747275441559805000,0.708804931640625,0.0997915267944336,0.002893194556236267,0.01801997423171997
1747275441575846000,0.724845947265625,0.08303165435791016,-0.00912436842918396,-0.008410468697547913
1747275441591866400,0.740866455078125,0.09979248046875,-0.013767033815383911,-0.008216843008995056
1747275441607873000,0.756873046875,0.09021568298339844,-0.0017464011907577515,0.0013620704412460327
1747275441623884800,0.772884765625,0.1021890640258789,0.007976412773132324,-0.017884783446788788
1747275441639975000,0.788974853515625,0.11176586151123047,0.0031424760818481445,-0.0011226311326026917
1747275441656011000,0.805010986328125,0.07106685638427734,-0.008587583899497986,-0.020179301500320435
1747275441672030500,0.821030517578125,0.07346439361572266,-0.02755129337310791,0.0013381019234657288
1747275441688075000,0.837074951171875,0.0950155258178711,-0.020136237144470215,0.0013441070914268494
1747275441704066600,0.853066650390625,0.08065223693847656,-0.019901886582374573,-0.0032706931233406067
1747275441720135400,0.869135498046875,0.11416912078857422,0.011188432574272156,-0.0031709372997283936
1747275441736186000,0.88518603515625,0.10698318481445312,0.013439208269119263,0.023262806236743927
1747275441752208000,0.901207763671875,0.09740543365478516,-0.012991204857826233,0.0016689002513885498
1747275441768256800,0.9172568359375,0.10937881469726562,-0.01998017728328705,0.008901163935661316
1747275441784273400,0.9332734375,0.06868171691894531,-0.0005855709314346313,0.004066094756126404
1747275441800340200,0.94934033203125,0.05910491943359375,-0.022064805030822754,0.004107914865016937
1747275441816380000,0.9653798828125,0.1045989990234375,-0.007542118430137634,-0.005568996071815491
1747275441832401200,0.981401123046875,0.11896038055419922,0.004335030913352966,-0.026970133185386658
1747275441848405200,0.9974052734375,0.10220146179199219,-0.007541954517364502,-0.010117553174495697
1747275441864399600,1.013399658203125,0.10459613800048828,0.009311720728874207,0.001995183527469635
1747275441880427500,1.029427490234375,0.07108020782470703,0.002369523048400879,-0.012321412563323975
1747275441896466400,1.045466552734375,0.08304977416992188,-0.019128799438476562,0.0021897107362747192
1747275441912488700,1.06148876953125,0.09741878509521484,-0.021330222487449646,-0.014665424823760986
1747275441928561000,1.077560791015625,0.09981250762939453,-0.016589894890785217,-0.00030028820037841797
1747275441944573700,1.09357373046875,0.11178398132324219,0.026553861796855927,0.009276486933231354
1747275441960644400,1.109644287109375,0.1093912124633789,0.012238845229148865,0.0020486116409301758
1747275441976682500,1.1256826171875,0.12615203857421875,-0.004470571875572205,0.006742991507053375
1747275441992704000,1.1417041015625,0.0662994384765625,-0.006672278046607971,-0.002737075090408325
1747275442008761300,1.15776123046875,0.06390666961669922,-0.02094176411628723,-0.007526077330112457
1747275442024803300,1.17380322265625,0.09742546081542969,-0.011221691966056824,-0.01461348682641983
1747275442040871200,1.18987109375,0.07587718963623047,-0.00408761203289032,0.006981797516345978
1747275442056911400,1.205911376953125,0.10221385955810547,-0.00399114191532135,0.009424664080142975
1747275442072926200,1.22192626953125,0.10939788818359375,0.020047619938850403,0.016655854880809784
1747275442088927000,1.237927001953125,0.09024715423583984,0.0011806488037109375,0.00956762582063675
1747275442104944000,1.253944091796875,0.10222053527832031,-0.0035125315189361572,0.009470932185649872
1747275442120971800,1.2699716796875,0.07349300384521484,0.006304308772087097,0.01904793083667755
1747275442137011500,1.286011474609375,0.07349491119384766,-0.01026277244091034,0.009519852697849274
1747275442153027600,1.302027587890625,0.08307170867919922,-0.0006866902112960815,-0.007192641496658325
1747275442169069800,1.31806982421875,0.12377548217773438,-0.01251286268234253,-0.009490005671977997
1747275442185064200,1.334064208984375,0.08786487579345703,0.018709689378738403,0.007080569863319397
1747275442201134800,1.350134765625,0.10223102569580078,0.011623799800872803,0.007177293300628662
1747275442217213200,1.366213134765625,0.10702133178710938,-0.004846498370170593,-0.011782482266426086
1747275442233235200,1.382235107421875,0.10942268371582031,0.019510969519615173,-0.026223458349704742
1747275442249286700,1.39828662109375,0.10943031311035156,0.008136183023452759,-0.021242380142211914
1747275442265313500,1.4143134765625,0.09028053283691406,-0.010469123721122742,-0.016145259141921997
1747275442281379600,1.430379638671875,0.07592296600341797,0.004480615258216858,-0.013539135456085205
1747275442297418500,1.44641845703125,0.0831146240234375,-0.002008885145187378,-0.015905417501926422
1747275442313436200,1.462436279296875,0.05199623107910156,-0.023134365677833557,-0.006232649087905884
1747275442329441300,1.478441162109375,0.025661468505859375,-0.015643075108528137,0.020306706428527832
1747275442345435000,1.494434814453125,0.08791160583496094,-0.02043144404888153,0.027393467724323273
1747275442361456000,1.5104560546875,0.09748458862304688,0.0007845759391784668,0.034508705139160156
1747275442377493000,1.526492919921875,0.10227012634277344,0.01498323678970337,0.03690703958272934
1747275442393519600,1.54251953125,0.10226726531982422,0.026727691292762756,0.024898044764995575
1747275442409583600,1.55858349609375,0.1022653579711914,0.009936392307281494,0.02263343334197998
1747275442425607000,1.57460693359375,0.080718994140625,0.0100022554397583,0.0011164918541908264
1747275442441678300,1.59067822265625,0.07593154907226562,-0.025814786553382874,-0.010806642472743988
1747275442457719600,1.606719482421875,0.08550739288330078,-0.037832364439964294,-0.013198889791965485
1747275442473744400,1.622744384765625,0.08550643920898438,0.009955942630767822,-0.0108041912317276
1747275442489794800,1.638794921875,0.11184024810791016,0.002731233835220337,-0.02992427349090576
1747275442505799400,1.65479931640625,0.10465621948242188,-0.0021924972534179688,0.0036142393946647644
1747275442521872000,1.670871826171875,0.08071708679199219,-0.0020963698625564575,-0.008452631533145905
1747275442537915400,1.686915283203125,0.06635570526123047,-0.01387372612953186,0.015395812690258026
1747275442553938400,1.7029384765625,0.09987449645996094,-0.018661394715309143,0.032155975699424744
1747275442569986600,1.718986572265625,0.07353401184082031,-0.009277641773223877,0.005915366113185883
1747275442586019600,1.73501953125,0.10704708099365234,0.00470346212387085,0.022627204656600952
1747275442602052000,1.751052001953125,0.13338375091552734,0.006925314664840698,0.024821244180202484
1747275442618095000,1.76709521484375,0.10465526580810547,0.033350951969623566,0.000798538327217102
1747275442634119200,1.783119140625,0.09508132934570312,-0.011947259306907654,-0.013518787920475006
1747275442650189600,1.799189453125,0.080718994140625,-0.026069700717926025,0.0031952857971191406
1747275442666184700,1.815184814453125,0.06635665893554688,-0.0259249210357666,-0.011168479919433594
1747275442682251500,1.83125146484375,0.06635665893554688,-0.0020317286252975464,-0.00642886757850647
1747275442698289000,1.847288818359375,0.09029579162597656,-0.006914481520652771,-0.01356130838394165
1747275442714311200,1.863311279296875,0.09508132934570312,-0.0023182183504104614,0.017659686505794525
1747275442730364700,1.87936474609375,0.09268379211425781,0.023924484848976135,0.003346189856529236
1747275442746453500,1.89545361328125,0.07831954956054688,0.007167428731918335,0.01048325002193451
1747275442762523000,1.91152294921875,0.06635189056396484,-0.00939953327178955,-0.001487724483013153
1747275442778567400,1.9275673828125,0.08310985565185547,-0.02136950194835663,0.008235037326812744
1747275442794592000,1.943592041015625,0.08550262451171875,0.0024764686822891235,-0.003735743463039398
1747275442810601700,1.959601806640625,0.07832145690917969,0.01933412253856659,-0.010915741324424744
1747275442826597600,1.97559765625,0.10465526580810547,0.007171943783760071,-0.018097609281539917
1747275442842631200,1.991631103515625,0.09746932983398438,0.007124617695808411,-0.010722093284130096
1747275442858672600,2.007672607421875,0.08071136474609375,-0.002404823899269104,0.00598868727684021
1747275442874697700,2.02369775390625,0.0902862548828125,-0.014568060636520386,0.005892649292945862
1747275442890746400,2.039746337890625,0.08070850372314453,-0.009875401854515076,-0.015750668942928314
1747275442906734300,2.055734375,0.07831192016601562,-0.0027881115674972534,0.005893804132938385
1747275442922804700,2.0718046875,0.08788585662841797,-0.007719874382019043,0.015471339225769043
1747275442938846700,2.0878466796875,0.10225105285644531,0.006692260503768921,-0.0011931806802749634
1747275442954869500,2.103869384765625,0.0807037353515625,-0.0005377978086471558,0.017912745475769043
1747275442970939100,2.119939208984375,0.09746170043945312,-0.010209262371063232,0.005895853042602539
1747275442986936000,2.13593603515625,0.06633758544921875,0.009040206670761108,-0.00837322324514389
1747275443003009000,2.152009033203125,0.07352161407470703,-0.017199739813804626,0.013175159692764282
1747275443019053800,2.1680537109375,0.11421966552734375,-0.03419966995716095,-0.0107186958193779
1747275443035075600,2.18407568359375,0.08788013458251953,-0.012748092412948608,-0.013065226376056671
1747275443051086000,2.200086181640625,0.08069705963134766,0.018329784274101257,0.01092616468667984
1747275443067079700,2.21607958984375,0.09027099609375,-0.0009660869836807251,-0.012965627014636993
1747275443083109400,2.232109375,0.07111835479736328,-0.0009165853261947632,-0.005733676254749298
1747275443099151000,2.248151123046875,0.08548450469970703,-0.0008671283721923828,0.030085638165473938
1747275443115175200,2.264175048828125,0.09984874725341797,-0.015423014760017395,-0.017892464995384216
1747275443131273200,2.280273193359375,0.08069515228271484,0.008518487215042114,0.0035583674907684326
1747275443147270400,2.2962705078125,0.0639333724975586,0.0060281455516815186,0.008395344018936157
1747275443163340500,2.312340576171875,0.11660575866699219,0.008281558752059937,0.0010252296924591064
1747275443179381500,2.328381591796875,0.09745407104492188,-0.005986467003822327,-0.006155923008918762
1747275443195407000,2.344406982421875,0.03760242462158203,-0.017860546708106995,0.02247944474220276
1747275443211458800,2.360458740234375,0.07830047607421875,-0.032258957624435425,0.005858041346073151
1747275443227460600,2.376460693359375,0.08548164367675781,-0.00601862370967865,0.003607727587223053
1747275443243535000,2.39253515625,0.06393241882324219,-0.008509591221809387,0.0059533193707466125
1747275443259582000,2.40858203125,0.1309642791748047,-0.013587698340415955,0.0036056488752365112
1747275443275607300,2.424607177734375,0.075897216796875,0.029410608112812042,-0.008415140211582184
1747275443291616300,2.4406162109375,0.08547592163085938,0.0056114643812179565,0.0012082979083061218
1747275443307612000,2.45661181640625,0.09026527404785156,0.0032177865505218506,-0.0036273151636123657
1747275443323646500,2.472646484375,0.05914115905761719,-0.0038672685623168945,0.02754736691713333
1747275443339693800,2.48869384765625,0.0830850601196289,-0.008558154106140137,0.015482597053050995
1747275443355718400,2.504718505859375,0.09744644165039062,0.0008250027894973755,-0.003528997302055359
1747275443371767300,2.520767333984375,0.08308219909667969,0.01049908995628357,-0.0010851845145225525
1747275443387759600,2.536759521484375,0.1070241928100586,-0.006307542324066162,-0.0011803731322288513
1747275443403832800,2.552832763671875,0.07829475402832031,-0.01588350534439087,-0.0012266337871551514
1747275443419873500,2.56887353515625,0.06632423400878906,-0.01583397388458252,0.003612108528614044
1747275443435895800,2.584895751953125,0.09026718139648438,-0.015833228826522827,-0.008502304553985596
1747275443451944200,2.600944091796875,0.07350921630859375,-0.013389796018600464,0.0009798035025596619
1747275443467942000,2.61694189453125,0.0806894302368164,0.005476117134094238,0.015201225876808167
1747275443484015000,2.63301513671875,0.10223579406738281,0.0005911588668823242,-0.018366605043411255
1747275443500057900,2.649057861328125,0.047173500061035156,0.017446205019950867,0.0030363723635673523
1747275443516083200,2.665083251953125,0.0878744125366211,-0.02081020176410675,0.017501920461654663
1747275443532093200,2.68109326171875,0.1046304702758789,-0.028135165572166443,0.0031867921352386475
1747275443548096800,2.6970966796875,0.09026527404785156,0.0006448030471801758,-0.0015036016702651978
1747275443564128000,2.7131279296875,0.06631851196289062,-0.016451075673103333,0.008072301745414734
1747275443580168700,2.729168701171875,0.10701465606689453,-0.021506011486053467,0.005721889436244965
1747275443596190500,2.7451904296875,0.09743404388427734,0.023791253566741943,-0.00859590619802475
1747275443612241000,2.761240966796875,0.09025096893310547,0.00942760705947876,-0.010891735553741455
1747275443628236300,2.777236328125,0.056735992431640625,-0.02399545907974243,-0.00868929922580719
1747275443644312300,2.793312255859375,0.10940742492675781,-0.012023404240608215,0.008119449019432068
1747275443660355600,2.80935546875,0.09504508972167969,-0.014224767684936523,0.0009373500943183899
1747275443676383500,2.825383544921875,0.07349872589111328,-0.006991982460021973,0.0009400323033332825
1747275443692433700,2.84143359375,0.07110309600830078,-0.014223188161849976,0.022487126290798187
1747275443708469000,2.857468994140625,0.0663156509399414,-0.007038995623588562,-0.003894917666912079
1747275443724543000,2.87354296875,0.1213827133178711,0.004933089017868042,0.012769743800163269
1747275443740588300,2.88958837890625,0.08068084716796875,-0.007181733846664429,0.005491703748703003
1747275443756615000,2.905614990234375,0.037586212158203125,-0.021450892090797424,0.0007032826542854309
1747275443772626200,2.921626220703125,0.08307361602783203,-0.019153639674186707,-0.008779071271419525
1747275443788624000,2.937623779296875,0.09743881225585938,0.002347797155380249,-0.013613373041152954
1747275443804655600,2.953655517578125,0.09743785858154297,0.004647195339202881,-0.018447555601596832
1747275443820698400,2.969698486328125,0.09983062744140625,-0.014410018920898438,0.0009944885969161987
1747275443836723200,2.98572314453125,0.09264945983886719,0.014419019222259521,-0.006232447922229767
1747275443852773000,3.001773193359375,0.08786201477050781,0.019208520650863647,0.0009034872055053711
1747275443868783400,3.017783447265625,0.07589340209960938,-0.019001752138137817,-0.008719831705093384
1747275443884860400,3.0338603515625,0.03758716583251953,-0.018855690956115723,0.0056961700320243835
1747275443900902400,3.04990234375,0.0950469970703125,0.007385939359664917,0.012881144881248474
1747275443916929800,3.0659296875,0.12137889862060547,0.02151280641555786,-0.0038761496543884277
1747275443932982000,3.08198193359375,0.10222244262695312,0.0023116320371627808,-0.0036829933524131775
1747275443948980000,3.09797998046875,0.10222148895263672,0.0023126453161239624,0.022750578820705414
1747275443965053000,3.114052978515625,0.09983158111572266,-0.014301121234893799,0.00589713454246521
1747275443981094000,3.130093994140625,0.08307075500488281,-0.031108498573303223,0.015473723411560059
1747275443997118700,3.14611865234375,0.07110023498535156,-0.007164716720581055,0.00589907169342041
1747275444013138700,3.162138671875,0.06152153015136719,-0.04318094253540039,-0.008471265435218811
1747275444029152300,3.17815234375,0.09503746032714844,0.011626899242401123,-0.01096043735742569
1747275444045184300,3.194184326171875,0.11419010162353516,0.013973921537399292,-0.01574813574552536
1747275444061227800,3.210227783203125,0.10700798034667969,-0.012313783168792725,0.008242517709732056
1747275444077252400,3.22625244140625,0.06630802154541016,-0.028976142406463623,0.01068626344203949
1747275444093340400,3.24234033203125,0.07588481903076172,-0.021745920181274414,0.02265649288892746
1747275444109335000,3.2583349609375,0.08785343170166016,-0.0338405966758728,-0.013159312307834625
1747275444125407500,3.274407470703125,0.0950326919555664,-0.0004901885986328125,0.006035797297954559
1747275444141449500,3.290449462890625,0.0974273681640625,0.009085893630981445,0.013121545314788818
1747275444157474600,3.306474609375,0.0974283218383789,0.006594061851501465,-0.011062771081924438
1747275444173528300,3.3225283203125,0.09982109069824219,0.011333867907524109,-0.0013903230428695679
1747275444189545000,3.338544921875,0.06390762329101562,-0.029368504881858826,0.00823306292295456
1747275444205616400,3.354616455078125,0.04714775085449219,-0.019791379570961,-0.01800626516342163
1747275444221656800,3.37065673828125,0.0902395248413086,-0.036818429827690125,0.02025129646062851
1747275444237678800,3.386678955078125,0.10460186004638672,-0.010669976472854614,-0.003638431429862976
1747275444253684700,3.402684814453125,0.1045989990234375,0.017821237444877625,-0.008522234857082367
1747275444269677000,3.418677001953125,0.11896419525146484,0.03228374570608139,0.010825209319591522
1747275444285708500,3.43470849609375,0.0806589126586914,-0.015406742691993713,0.0012507364153862
1747275444301751600,3.45075146484375,0.09023761749267578,0.003940686583518982,0.01571469008922577
1747275444317794600,3.466794677734375,0.05671882629394531,-0.03666555881500244,0.02782854437828064
1747275444333839600,3.482839599609375,0.05911064147949219,-0.03195887804031372,-0.015176936984062195
1747275444349862400,3.4988623046875,0.09741401672363281,0.0013815909624099731,0.013653650879859924
1747275444365934000,3.51493408203125,0.12613964080810547,-0.001232251524925232,0.004219621419906616
1747275444382005000,3.5310048828125,0.11177349090576172,0.0321430042386055,-0.01507752388715744
1747275444398028800,3.54702880859375,0.08544254302978516,0.01078803837299347,0.02308514714241028
1747275444414079500,3.56307958984375,0.09023475646972656,-0.02248859405517578,-0.0008547082543373108
1747275444430076700,3.57907666015625,0.044745445251464844,-0.03196835517883301,0.003935180604457855
1747275444446147800,3.59514794921875,0.0878286361694336,-0.020667895674705505,-0.012582726776599884
1747275444462188500,3.6111884765625,0.13092327117919922,-0.0038591623306274414,-0.012436307966709137
1747275444478215000,3.62721484375,0.07586002349853516,0.04187106341123581,-0.012340106070041656
1747275444494224400,3.643224365234375,0.1405010223388672,0.04666595906019211,-0.009838439524173737
1747275444510244000,3.659244140625,0.1165609359741211,-0.015535145998001099,-0.00026163458824157715
1747275444526275000,3.675275146484375,0.0207977294921875,0.0016085952520370483,0.00696958601474762
1747275444542316300,3.69131640625,0.05431938171386719,-0.05092114210128784,0.014102853834629059
1747275444558340600,3.707340576171875,0.08065414428710938,-0.03902024030685425,0.028516307473182678
1747275444574391000,3.72339111328125,0.08544158935546875,0.027911506593227386,0.0069328248500823975
1747275444590387500,3.739387451171875,0.12853240966796875,0.03724965453147888,0.021443217992782593
1747275444606460000,3.7554599609375,0.13811016082763672,0.00381411612033844,-0.002560146152973175
1747275444622500600,3.77150048828125,0.05431938171386719,0.004103034734725952,-0.01228032261133194
1747275444638524000,3.78752392578125,0.06390094757080078,-0.029032066464424133,-0.0050505176186561584
1747275444654568400,3.803568359375,0.08545303344726562,-0.05030269920825958,-0.009782597422599792
1747275444670603000,3.81960302734375,0.030384063720703125,-0.01688791811466217,0.009372696280479431
1747275444686673200,3.835673095703125,0.1093912124633789,0.018907740712165833,-0.007381998002529144
1747275444702712000,3.851712158203125,0.1596670150756836,0.004253655672073364,0.006838388741016388
1747275444718732300,3.867732177734375,0.09263134002685547,0.009185940027236938,0.0020018890500068665
1747275444734780000,3.88377978515625,0.06390571594238281,-0.0097266286611557,0.01148318499326706
1747275444750774500,3.8997744140625,0.073486328125,-0.035871028900146484,-0.005372084677219391
1747275444766804200,3.91580419921875,0.04954814910888672,-0.01653088629245758,-0.007856719195842743
1747275444782842600,3.931842529296875,0.09024810791015625,-0.016610711812973022,-0.019718565046787262
1747275444798864600,3.94786474609375,0.13813018798828125,0.02165454626083374,-0.00762910395860672
1747275444814873000,3.963873046875,0.10700035095214844,0.057374417781829834,-0.009976677596569061
1747275444830909200,3.9799091796875,0.10699939727783203,0.01185181736946106,-0.0027074068784713745
1747275444846984700,3.995984619140625,0.10700225830078125,-0.016708076000213623,-0.007494248449802399
1747275444863060000,4.01206005859375,0.037573814392089844,-0.028534770011901855,0.0020825713872909546
1747275444879086600,4.028086669921875,0.061514854431152344,-0.03576591610908508,0.006821207702159882
1747275444895140900,4.044140869140625,0.11657905578613281,-0.021671846508979797,0.0042411163449287415
1747275444911135200,4.06013525390625,0.09981918334960938,0.021303638815879822,0.008937045931816101
1747275444927204600,4.07620458984375,0.09981536865234375,0.03542900085449219,0.013821221888065338
1747275444943247000,4.0922470703125,0.12136173248291016,-0.007712706923484802,-0.005377493798732758
1747275444959273000,4.10827294921875,0.07348155975341797,-0.009913310408592224,0.006547778844833374
1747275444975281200,4.12428125,0.059116363525390625,-0.02662479877471924,0.018518485128879547
1747275444991319300,4.1403193359375,0.08306121826171875,-0.05292956531047821,0.0016004443168640137
1747275445007355600,4.156355712890625,0.07108783721923828,0.00911363959312439,0.013516150414943695
1747275445023419000,4.1724189453125,0.11896705627441406,0.018469005823135376,0.004086501896381378
1747275445039436300,4.188436279296875,0.13572406768798828,0.006401956081390381,-0.0007021129131317139
1747275445055535000,4.20453515625,0.08065986633300781,0.008942514657974243,0.006482630968093872
1747275445071531300,4.22053125,0.07587337493896484,-0.007671445608139038,0.013714917004108429
1747275445087603500,4.236603515625,0.07108783721923828,-0.0529862642288208,0.011405400931835175
1747275445103644700,4.252644775390625,0.07108688354492188,-0.017048239707946777,0.011432774364948273
1747275445119667700,4.268667724609375,0.0854501724243164,-0.009932100772857666,0.009103350341320038
1747275445135715300,4.28471533203125,0.12854385375976562,0.006692647933959961,0.006728179752826691
1747275445151774200,4.300774169921875,0.11178016662597656,0.020914286375045776,-0.00030938535928726196
1747275445167843000,4.316843017578125,0.11896610260009766,0.001905873417854309,0.016355544328689575
1747275445183883800,4.3328837890625,0.0830535888671875,-0.0434880405664444,-0.01223057508468628
1747275445199908000,4.348908203125,0.0615081787109375,-0.029015645384788513,-0.019546449184417725
1747275445215919600,4.364919677734375,0.06390094757080078,-0.017107203602790833,-0.014700531959533691
1747275445231918600,4.380918701171875,0.09741878509521484,-0.007517650723457336,0.011786647140979767
1747275445247951000,4.396951171875,0.09981155395507812,-0.007660016417503357,0.0069524794816970825
1747275445263996400,4.412996337890625,0.11178112030029297,0.0018214136362075806,0.00929945707321167
1747275445280024600,4.429024658203125,0.1045989990234375,-0.0005722492933273315,-0.0002766624093055725
1747275445296078300,4.445078369140625,0.07347583770751953,-0.017233848571777344,0.03319612145423889
1747275445312075300,4.4610751953125,0.06868934631347656,-0.024317950010299683,0.009257674217224121
1747275445328147700,4.477147705078125,0.09981441497802734,-0.017177611589431763,0.006742246448993683
1747275445344207000,4.49320703125,0.1141805648803711,0.004321172833442688,0.018635086715221405
1747275445360233700,4.509233642578125,0.12136077880859375,0.028118543326854706,0.006567925214767456
1747275445376286200,4.5252861328125,0.10220623016357422,0.013754650950431824,0.011502183973789215
1747275445392279800,4.54127978515625,0.09741783142089844,0.0018316656351089478,-0.012391909956932068
1747275445408351500,4.5573515625,0.0854501724243164,-0.026657357811927795,-0.0028127580881118774
1747275445424394200,4.573394287109375,0.07108688354492188,-0.0361366868019104,0.009208574891090393
1747275445440416800,4.589416748046875,0.0902395248413086,-0.014625102281570435,-0.0051626116037368774
1747275445456420400,4.60542041015625,0.09502601623535156,0.011608421802520752,0.004411458969116211
1747275445472417300,4.621417236328125,0.09502124786376953,0.004236623644828796,0.0022604987025260925
1747275445488447700,4.63744775390625,0.09981060028076172,0.025833234190940857,0.004607103765010834
1747275445504489500,4.653489501953125,0.1022043228149414,-0.005195513367652893,0.002356812357902527
1747275445520512000,4.669511962890625,0.0830535888671875,-0.021763190627098083,-0.00003853440284729004
1747275445536558600,4.68555859375,0.06629467010498047,-0.03129290044307709,0.016719475388526917
1747275445552555300,4.70155517578125,0.10460186004638672,-0.01705816388130188,0.007028765976428986
1747275445568627200,4.717627197265625,0.1093902587890625,0.0043462663888931274,-0.0027389824390411377
1747275445584665600,4.73366552734375,0.11417770385742188,-0.0028855502605438232,-0.005086444318294525
1747275445600689200,4.749689208984375,0.09741878509521484,-0.0005403012037277222,0.0066432952880859375
1747275445616743200,4.7657431640625,0.0902395248413086,-0.012366414070129395,-0.005375102162361145
1747275445632758800,4.7817587890625,0.090240478515625,-0.017154276371002197,0.0017601922154426575
1747275445648853000,4.79785302734375,0.07587718963623047,-0.031351104378700256,0.004199601709842682
1747275445664897500,4.8138974609375,0.07826995849609375,-0.007455378770828247,0.0018076300621032715
1747275445680927500,4.829927490234375,0.09981536865234375,0.004277706146240234,0.013781256973743439
1747275445696943900,4.84594384765625,0.11896705627441406,0.016152173280715942,0.004155643284320831
1747275445712945700,4.861945556640625,0.09023571014404297,0.008921578526496887,-0.0005848407745361328
1747275445728986600,4.877986572265625,0.08305549621582031,-0.007644906640052795,0.013781584799289703
1747275445745031400,4.894031494140625,0.09023761749267578,-0.04350994527339935,-0.0004397481679916382
1747275445761058600,4.91005859375,0.07108688354492188,-0.017084121704101562,-0.012457676231861115
1747275445777114000,4.926114013671875,0.09023857116699219,-0.002837345004081726,-0.002883218228816986
1747275445793121000,4.94212109375,0.1117849349975586,-0.003008320927619934,-0.005470782518386841
1747275445809195500,4.958195556640625,0.10939216613769531,0.0018766075372695923,0.011337071657180786
1747275445825245000,4.974244873046875,0.10939216613769531,-0.0004719197750091553,0.01617080718278885
1747275445841269200,4.990269287109375,0.08305644989013672,-0.024317339062690735,0.006643131375312805
1747275445857315600,5.006315673828125,0.07348155975341797,-0.0337643176317215,0.00668025016784668
1747275445873308700,5.02230859375,0.08305835723876953,-0.019334018230438232,0.00675848126411438
1747275445889370000,5.0383701171875,0.09742259979248047,-0.012079298496246338,0.002101995050907135
1747275445905405200,5.0544052734375,0.10939216613769531,0.004655316472053528,0.002286970615386963
1747275445921435100,5.07043505859375,0.09741783142089844,-0.016952216625213623,0.01204526424407959
1747275445937435000,5.086434814453125,0.11657238006591797,0.0022989362478256226,0.00012426823377609253
1747275445953434400,5.102434326171875,0.09023761749267578,-0.011873513460159302,0.009894326329231262
1747275445969466400,5.11846630859375,0.07826900482177734,0.00024242699146270752,0.00027085840702056885
1747275445985508900,5.1345087890625,0.07348155975341797,-0.018744036555290222,0.01233004778623581
1747275446001532400,5.150532470703125,0.09502983093261719,0.0004946291446685791,0.007616467773914337
1747275446017624000,5.1666240234375,0.10460567474365234,0.012416884303092957,-0.004259094595909119
1747275446033621800,5.182621826171875,0.10699748992919922,-0.009177297353744507,-0.008901059627532959
1747275446049696500,5.198696533203125,0.0926351547241211,0.005284473299980164,0.005320720374584198
1747275446065739500,5.214739501953125,0.0926361083984375,-0.011235177516937256,-0.0016705095767974854
1747275446081766000,5.230765869140625,0.08545589447021484,-0.025359436869621277,0.005609571933746338
1747275446097820200,5.246820068359375,0.08306312561035156,-0.006051361560821533,0.0009659081697463989
1747275446113854500,5.2628544921875,0.11418437957763672,-0.003734007477760315,-0.003583967685699463
1747275446129929700,5.2789296875,0.11178874969482422,0.01067940890789032,-0.0034878626465797424
1747275446145975000,5.29497509765625,0.09502983093261719,0.005988851189613342,0.0134662464261055
1747275446162001700,5.311001708984375,0.08305644989013672,-0.013116121292114258,-0.01741766184568405
1747275446178014500,5.327014404296875,0.08784675598144531,0.006229490041732788,0.023427844047546387
1747275446194016500,5.3430166015625,0.0662984848022461,-0.029586538672447205,0.004467509686946869
1747275446210046500,5.35904638671875,0.09741878509521484,-0.0057403892278671265,0.0022658705711364746
1747275446226089000,5.3750888671875,0.09980964660644531,0.018056288361549377,0.014426521956920624
1747275446242114600,5.391114501953125,0.11177921295166016,0.020450979471206665,-0.0022359266877174377
1747275446258165200,5.407165283203125,0.09023094177246094,0.0037397444248199463,-0.009322293102741241
1747275446274175000,5.423175048828125,0.08304691314697266,-0.012972712516784668,0.010069750249385834
1747275446290249200,5.439249267578125,0.07107830047607422,-0.022357001900672913,0.012560486793518066
1747275446306320100,5.455320068359375,0.08783245086669922,-0.02015507221221924,0.012656398117542267
1747275446322350000,5.47135009765625,0.09262371063232422,-0.015174150466918945,-0.006400644779205322
1747275446338405000,5.487405029296875,0.09023094177246094,-0.0007130652666091919,0.0007330328226089478
1747275446354403300,5.5034033203125,0.10220050811767578,0.0017295777797698975,0.005713984370231628
1747275446370481200,5.519481201171875,0.10459613800048828,-0.01249048113822937,0.013089850544929504
1747275446386530300,5.5355302734375,0.09023380279541016,-0.017037540674209595,0.0010723024606704712
1747275446402559200,5.551559326171875,0.08784103393554688,-0.02172987163066864,0.02262033522129059
1747275446418574000,5.567573974609375,0.07586956024169922,-0.03130924701690674,0.029909774661064148
1747275446434597600,5.58359765625,0.09741401672363281,0.006852656602859497,-0.008332982659339905
1747275446450633700,5.5996337890625,0.10698890686035156,0.0020171254873275757,0.010918326675891876
1747275446466680000,5.61568017578125,0.0878305435180664,-0.005404174327850342,0.011063680052757263
1747275446482705700,5.63170556640625,0.10458946228027344,0.004268154501914978,0.004120305180549622
1747275446498718000,5.647718017578125,0.0878286361694336,-0.0052110254764556885,0.004362583160400391
1747275446514715100,5.663715087890625,0.0638885498046875,-0.02896079421043396,0.004459194839000702
1747275446530786800,5.679786865234375,0.06867694854736328,-0.02408704161643982,0.009361885488033295
1747275446546842000,5.695842041015625,0.10219573974609375,-0.009681209921836853,-0.007322527468204498
1747275446562864000,5.711864013671875,0.10219383239746094,-0.007242992520332336,0.007200032472610474
1747275446578919400,5.72791943359375,0.09501361846923828,0.000035881996154785156,-0.00232861191034317
1747275446594948600,5.743948486328125,0.10459041595458984,-0.002310246229171753,0.02889222651720047
1747275446611019800,5.760019775390625,0.08304309844970703,0.0002754777669906616,0.005093738436698914
1747275446627068000,5.77606787109375,0.07825660705566406,-0.018636196851730347,-0.0067307353019714355
1747275446643096600,5.7920966796875,0.0950164794921875,-0.013797715306282043,0.010079950094223022
1747275446659108400,5.8081083984375,0.092620849609375,-0.011450245976448059,0.0006005987524986267
1747275446675107000,5.824107177734375,0.11177349090576172,-0.016190215945243835,-0.011273778975009918
1747275446691142400,5.840142333984375,0.114166259765625,-0.006708130240440369,0.012718334794044495
1747275446707188000,5.85618798828125,0.09740734100341797,-0.009005486965179443,-0.003895692527294159
1747275446723214300,5.87221435546875,0.07586097717285156,-0.013649016618728638,0.010518886148929596
1747275446739265800,5.888265869140625,0.08065319061279297,-0.0037839412689208984,-0.00140458345413208
1747275446755281400,5.904281494140625,0.08304786682128906,-0.015659496188163757,0.013007953763008118
1747275446771355100,5.920355224609375,0.06868457794189453,0.0012089163064956665,0.003431074321269989
1747275446787394000,5.93639404296875,0.11417198181152344,-0.0013739615678787231,0.008233465254306793
1747275446803413000,5.9524130859375,0.08543777465820312,-0.0062124282121658325,0.0037146732211112976
1747275446819460000,5.968460205078125,0.07586097717285156,0.0177144855260849,0.008550778031349182
1747275446835456000,5.9844560546875,0.10219097137451172,-0.013560712337493896,0.011245474219322205
1747275446851527000,6.00052685546875,0.11416244506835938,-0.020647093653678894,-0.005417950451374054
1747275446867568000,6.016568115234375,0.07345962524414062,-0.006233468651771545,0.0019574686884880066
1747275446883595800,6.032595703125,0.10937309265136719,-0.0013497322797775269,0.00449487566947937
1747275446899609000,6.048609130859375,0.09021949768066406,0.001093357801437378,0.016515426337718964
1747275446915643100,6.06464306640625,0.08543109893798828,0.0034871697425842285,0.026115864515304565
1747275446931679500,6.080679443359375,0.11176586151123047,-0.006132468581199646,0.006967209279537201
1747275446947730400,6.09673046875,0.06388378143310547,-0.0011944025754928589,0.023802444338798523
1747275446963755500,6.112755615234375,0.07106685638427734,0.003599494695663452,0.002286285161972046
1747275446979820500,6.128820556640625,0.11415958404541016,-0.013303235173225403,0.014258794486522675
1747275446995818800,6.14481884765625,0.09261608123779297,0.015576809644699097,0.01651633530855179
1747275447011891000,6.160890869140625,0.06628131866455078,0.02293497323989868,-0.0026163682341575623
1747275447027970600,6.176970458984375,0.09980297088623047,-0.005802512168884277,0.016324296593666077
1747275447043996400,6.192996337890625,0.092620849609375,0.008707821369171143,0.011632420122623444
1747275447060046800,6.209046875,0.02797985076904297,-0.02466629445552826,0.009287066757678986
1747275447076079000,6.2250791015625,0.21712017059326172,-0.03905811905860901,0.02611195296049118
1747275447092154400,6.241154296875,0.13811206817626953,0.011300057172775269,-0.016816146671772003
1747275447108201000,6.257200927734375,0.1165618896484375,0.01848319172859192,-0.007189474999904633
1747275447124224300,6.273224365234375,0.0950164794921875,-0.005410701036453247,0.016752533614635468
1747275447140232000,6.28923193359375,0.06868171691894531,0.006750926375389099,0.028855793178081512
1747275447156231700,6.305231689453125,0.0782632827758789,0.004694357514381409,0.014450065791606903
1747275447172266200,6.321266357421875,0.07587337493896484,-0.028659328818321228,0.007208108901977539
1747275447188312600,6.3373125,0.07587432861328125,0.0024977922439575195,0.02150210738182068
1747275447204337200,6.353337158203125,0.08784198760986328,0.00715966522693634,0.00955568253993988
1747275447220406000,6.369406005859375,0.12854290008544922,0.004631340503692627,-0.0025103986263275146
1747275447236440800,6.38544091796875,0.11178302764892578,0.01655171811580658,0.01660066843032837
1747275447252517000,6.40151708984375,0.08784198760986328,0.011936962604522705,0.0071687251329422
1747275447268555300,6.41755517578125,0.0662984848022461,-0.004601970314979553,0.019146837294101715
1747275447284578800,6.433578857421875,0.08066749572753906,-0.0019873082637786865,0.004661649465560913
1747275447300630800,6.449630859375,0.06869792938232422,-0.013861522078514099,0.02619016170501709
1747275447316639200,6.46563916015625,0.09264183044433594,-0.006665080785751343,0.009296849370002747
1747275447332714800,6.48171484375,0.11897945404052734,-0.006657719612121582,-0.002785041928291321
1747275447348759800,6.497759765625,0.12137031555175781,0.0219280868768692,-0.0027376115322113037
1747275447364784400,6.513784423828125,0.11658191680908203,0.021976694464683533,0.01646486669778824
1747275447380794400,6.52979443359375,0.09982776641845703,-0.016077563166618347,0.03318828344345093
1747275447396830200,6.545830322265625,0.0639181137084961,-0.01350913941860199,0.006807498633861542
1747275447412862500,6.561862548828125,0.10222721099853516,-0.022893026471138,0.009299196302890778
1747275447428905200,6.5779052734375,0.09025859832763672,0.001155748963356018,0.002095520496368408
1747275447444931300,6.593931396484375,0.08307361602783203,0.0034127235412597656,0.00442996621131897
1747275447460983600,6.609983642578125,0.12377357482910156,-0.0013716965913772583,-0.016987323760986328
1747275447476979200,6.625979248046875,0.10941219329833984,0.03947543352842331,-0.002667061984539032
1747275447493049000,6.642049072265625,0.0735015869140625,0.006148084998130798,0.006860919296741486
1747275447509111300,6.658111328125,0.09026527404785156,-0.024734511971473694,0.014045588672161102
1747275447525138200,6.67413818359375,0.06871604919433594,-0.010322228074073792,0.011794663965702057
1747275447541192200,6.690192138671875,0.07350635528564453,-0.010225489735603333,-0.00735810399055481
1747275447557237500,6.706237548828125,0.10702133178710938,-0.022387132048606873,0.0022691115736961365
1747275447573307600,6.7223076171875,0.1022329330444336,-0.003233686089515686,0.004615411162376404
1747275447589348900,6.738348876953125,0.09744644165039062,0.01127612590789795,0.01189471036195755
1747275447605370400,6.754370361328125,0.10463237762451172,-0.0052908360958099365,0.004712842404842377
1747275447621380000,6.770380126953125,0.06632804870605469,-0.014626279473304749,0.016734018921852112
1747275447637374700,6.786374755859375,0.08069419860839844,-0.002633407711982727,0.014305830001831055
1747275447653406700,6.80240673828125,0.10463523864746094,-0.0025615841150283813,-0.0022900179028511047
1747275447669447700,6.81844775390625,0.09984493255615234,0.0021308958530426025,-0.004588313400745392
1747275447685472500,6.834472412109375,0.085479736328125,-0.00021654367446899414,0.0026405006647109985
1747275447701521000,6.85052099609375,0.09744930267333984,-0.00270727276802063,0.014610767364501953
1747275447717511400,6.866511474609375,0.09984683990478516,0.002322062849998474,0.014708928763866425
1747275447733586000,6.8825859375,0.08069705963134766,-0.002274826169013977,0.012218177318572998
1747275447749626600,6.898626708984375,0.08787918090820312,-0.021453484892845154,-0.002188369631767273
1747275447765651700,6.914651611328125,0.0950613021850586,-0.009471103549003601,0.01943499594926834
1747275447781705200,6.930705322265625,0.09985160827636719,0.01693122088909149,0.007340125739574432
1747275447797702100,6.9467021484375,0.10464000701904297,0.01932796835899353,0.0049975961446762085
1747275447813771800,6.962771728515625,0.08309459686279297,-0.004517585039138794,0.02649770677089691
1747275447829816800,6.97881689453125,0.0783071517944336,-0.006814673542976379,0.01208602637052536
1747275447845842700,6.9948427734375,0.0807037353515625,-0.006765097379684448,0.019174844026565552
1747275447861854200,7.010854248046875,0.10225105285644531,-0.006756305694580078,0.0191531702876091
1747275447877849900,7.026849853515625,0.09028053283691406,0.012319788336753845,0.02377697080373764
1747275447893881000,7.042881103515625,0.09506797790527344,0.014604926109313965,0.02374967932701111
1747275447909923800,7.058923828125,0.08549022674560547,-0.011843949556350708,-0.002601414918899536
1747275447925948000,7.074947998046875,0.09506607055664062,0.002521514892578125,0.002283751964569092
1747275447941998800,7.090998779296875,0.09746170043945312,-0.009400054812431335,0.011766478419303894
1747275447957999000,7.1069990234375,0.08788490295410156,0.00740872323513031,-0.002596430480480194
1747275447974074600,7.12307470703125,0.10464668273925781,-0.00925678014755249,-0.0002050250768661499
1747275447990117400,7.139117431640625,0.10943603515625,0.014686957001686096,-0.0026445984840393066
1747275448006142500,7.155142578125,0.07831382751464844,0.014924690127372742,0.0021879449486732483
1747275448022204000,7.171203857421875,0.09028816223144531,-0.030324488878250122,0.011860914528369904
1747275448038204000,7.187203857421875,0.0998678207397461,-0.027738839387893677,0.009418018162250519
1747275448054274000,7.203274169921875,0.07832145690917969,0.008315950632095337,0.016645506024360657
1747275448070325200,7.2193251953125,0.09268665313720703,0.010669946670532227,0.014207802712917328
1747275448086352600,7.2353525390625,-0.005475044250488281,0.010531231760978699,0.021127775311470032
1747275448102357000,7.25135693359375,0.18366336822509766,-0.0040237754583358765,0.021186217665672302
1747275448118356700,7.267356689453125,0.13099193572998047,0.015131458640098572,-0.0029053688049316406
1747275448134383600,7.283383544921875,0.10705089569091797,0.0007997602224349976,0.01864812523126602
1747275448150419700,7.299419677734375,0.12381267547607422,-0.00395713746547699,0.0017850399017333984
1747275448166444500,7.315444580078125,0.08789920806884766,0.039143361151218414,0.020921505987644196
1747275448182539800,7.331539794921875,0.1549539566040039,-0.0849161446094513,0.27600526809692383
1747275448198539500,7.34753955078125,0.08313941955566406,0.41246968507766724,0.46203529834747314
1747275448214613200,7.36361328125,0.11904335021972656,0.21361535787582397,-1.1461026668548584
1747275448230653000,7.37965283203125,0.09504032135009766,0.2679365873336792,-0.6123505234718323
1747275448246675200,7.39567529296875,0.14527606964111328,0.5322939157485962,0.3162342607975006
1747275448262725600,7.4117255859375,0.1476449966430664,-0.002966254949569702,0.40309566259384155
1747275448278770000,7.42777001953125,0.13088607788085938,-0.41668790578842163,0.08521462976932526
1747275448294841300,7.44384130859375,0.2458019256591797,-0.5954909920692444,-0.06623399257659912
1747275448310883600,7.459883544921875,0.2553234100341797,0.10710349678993225,0.23119887709617615
1747275448326929700,7.4759296875,-0.17575740814208984,0.7508584856987,0.63381427526474
1747275448342938000,7.491938232421875,0.1402902603149414,-0.5095416307449341,0.024491935968399048
1747275448358942500,7.5079423828125,0.25093650817871094,-0.6918395757675171,-0.8471944332122803
1747275448374976500,7.5239765625,0.048130035400390625,0.15537038445472717,-0.035040758550167084
1747275448391021300,7.540021240234375,0.1419687271118164,0.035087019205093384,-0.012254774570465088
1747275448407046700,7.556046630859375,0.1566486358642578,-0.0024599432945251465,-0.006902910768985748
1747275448423095600,7.572095458984375,-0.06773567199707031,-0.6560653448104858,1.0403409004211426
1747275448439090000,7.58808984375,0.47275829315185547,-1.1933603286743164,1.8477767705917358
1747275448455155000,7.604155029296875,0.0023393630981445312,0.23767074942588806,0.8866119384765625
1747275448471228000,7.620227783203125,0.4248847961425781,1.1969484090805054,-1.4598162174224854
1747275448487252700,7.636252685546875,-0.19194507598876953,0.5967983603477478,-2.102250099182129
1747275448503297800,7.6522978515625,0.4695777893066406,0.17353036999702454,-0.2423815131187439
1747275448519304700,7.6683046875,-1.0380420684814453,-0.21388760209083557,-0.41229531168937683
1747275448535369200,7.684369140625,0.0914754867553711,-0.47167518734931946,-0.38445019721984863
1747275448551392300,7.700392333984375,-2.8354697227478027,-0.21752412617206573,-0.1881505250930786
1747275448567418600,7.716418701171875,0.7154150009155273,-0.312503457069397,0.04045005142688751
1747275448583412200,7.732412109375,0.28813934326171875,-1.3714818954467773,0.3397800922393799
1747275448599407900,7.748407958984375,-0.5471401214599609,-1.0652410984039307,-1.0669337511062622
1747275448615427800,7.764427734375,0.06819438934326172,-0.2873719036579132,-2.857208728790283
1747275448631456300,7.780456298828125,0.05184650421142578,0.5133877396583557,-1.2644803524017334
1747275448647479800,7.796479736328125,0.48100948333740234,0.5143512487411499,0.2833803594112396
1747275448663556600,7.812556640625,0.1916046142578125,0.08288995921611786,-0.2630438208580017
1747275448679559200,7.82855908203125,1.0634727478027344,0.3657896816730499,0.329000860452652
1747275448695622700,7.84462255859375,0.22674179077148438,-1.1994695663452148,1.4761908054351807
1747275448711655400,7.860655517578125,-0.06927204132080078,-0.9716925621032715,1.4530237913131714
1747275448727675600,7.876675537109375,-0.08892822265625,-0.6963397860527039,-0.5582748651504517
1747275448743717600,7.892717529296875,0.09099006652832031,-0.43206533789634705,-1.112140417098999
1747275448759714000,7.908714111328125,0.06463909149169922,-0.1845642328262329,-0.7239302396774292
1747275448775773400,7.9247734375,0.030602455139160156,-0.15297818183898926,-0.1552572250366211
1747275448791809000,7.94080908203125,-0.2687873840332031,-0.8252173662185669,-2.1124937534332275
1747275448807834600,7.956834716796875,0.40883636474609375,-1.6353387832641602,-1.8568437099456787
1747275448823834000,7.972834228515625,1.2186994552612305,-1.5164777040481567,-1.2340830564498901
1747275448839833900,7.988833740234375,0.5373268127441406,-0.7802988886833191,-0.6286493539810181
1747275448855862300,8.0048623046875,-0.4123802185058594,-0.541495144367218,-0.3244364261627197
1747275448871895600,8.0208955078125,-0.12726974487304688,-0.09248560667037964,1.8052374124526978
1747275448887919600,8.036919677734375,-0.3436279296875,0.33418309688568115,1.6217584609985352
1747275448903964400,8.05296435546875,-0.8039846420288086,0.5988640189170837,-0.12573766708374023
1747275448919964000,8.0689638671875,-0.6466579437255859,0.5260400176048279,-0.7452912330627441
1747275448936026600,8.085026611328125,0.8687953948974609,0.2947428524494171,0.2610313892364502
1747275448952084000,8.101083984375,2.0751705169677734,-0.002624303102493286,1.0568581819534302
1747275448968108300,8.1171083984375,2.284937858581543,-0.059109121561050415,1.3817412853240967
1747275448984155100,8.133155029296875,-2.981795310974121,0.2965448796749115,1.4259363412857056
1747275449000157700,8.14915771484375,-0.4848146438598633,0.9770100116729736,-0.46006131172180176
1747275449016217000,8.165217041015625,0.8985500335693359,0.5102157592773438,-0.1343822479248047
1747275449032246800,8.181246826171876,0.6788482666015625,0.6033213138580322,1.5902204513549805
1747275449048275200,8.197275146484374,1.9962568283081055,1.4599987268447876,2.2029318809509277
1747275449064271400,8.213271240234375,1.2077608108520508,1.8937727212905884,1.1928205490112305
1747275449080269300,8.229269287109375,-0.38753795623779297,1.542704463005066,2.1322290897369385
1747275449096328700,8.24532861328125,-1.1202144622802734,0.8041132688522339,1.0632445812225342
1747275449112356900,8.26135693359375,0.2447671890258789,0.0025611557066440582,1.6976356506347656
1747275449128375600,8.27737548828125,0.9472427368164062,0.006365297362208366,0.9798929691314697
1747275449144459300,8.293459228515625,1.9349288940429688,0.40045931935310364,-0.19015264511108398
1747275449160464600,8.309464599609376,2.229191780090332,0.7044636607170105,-1.4797468185424805
1747275449176526600,8.325526611328126,1.9865789413452148,0.7998040914535522,-1.6983389854431152
1747275449192547000,8.341547119140625,1.0725431442260742,0.8053543567657471,-0.33488035202026367
1747275449208567000,8.357567138671875,0.30733203887939453,0.419485867023468,-1.094259262084961
1747275449224617000,8.373616943359375,-2.2023825645446777,-0.45653235912323,-3.2381606101989746
1747275449240608000,8.38960791015625,-2.8172054290771484,-0.6373065710067749,-2.009505271911621
1747275449256666600,8.40566650390625,-2.0812840461730957,-0.5397546887397766,-0.4542107582092285
1747275449272699400,8.421699462890626,0.001003265380859375,-0.012305378913879395,-0.45413780212402344
1747275449288720000,8.437719970703125,1.2635583877563477,-0.22914910316467285,-0.7755789756774902
1747275449304759300,8.45375927734375,2.3854570388793945,-0.016286849975585938,-0.7270832061767578
1747275449320757200,8.46975732421875,2.392918586730957,0.36770033836364746,-0.34862279891967773
1747275449336777200,8.485777099609376,1.1968774795532227,0.6265807151794434,-0.2753021717071533
1747275449352811800,8.501811767578126,-0.2465524673461914,0.6846373081207275,-1.2113544940948486
1747275449368832800,8.517832763671874,-0.3467597961425781,0.39202380180358887,-1.0802717208862305
1747275449384869600,8.53386962890625,-0.7225399017333984,0.04758286476135254,-0.1016085147857666
1747275449400866300,8.5498662109375,-1.250056266784668,-0.35389232635498047,0.1328887939453125
1747275449416935700,8.565935791015624,-1.404573917388916,-0.8263766765594482,0.8039510250091553
1747275449432957200,8.581957275390625,-1.6750874519348145,-0.9871129989624023,2.1873245239257812
1747275449448982300,8.597982177734375,-1.4567089080810547,-1.24835205078125,0.6766507625579834
1747275449465021700,8.614021728515626,-1.0068683624267578,-0.28908872604370117,1.5262353420257568
1747275449481054700,8.6300546875,-0.5215272903442383,0.47655296325683594,0.556243896484375
1747275449497113900,8.64611376953125,-0.4138612747192383,0.27607202529907227,-0.39673447608947754
1747275449513154000,8.662154052734374,-0.2132711410522461,-0.28068017959594727,0.2507166862487793
1747275449529178000,8.67817822265625,-0.10061264038085938,-0.31784725189208984,0.8795171976089478
1747275449545178000,8.69417822265625,-0.3427162170410156,-0.2241067886352539,-0.0655069351196289
1747275449561169200,8.710169189453126,-0.5757179260253906,0.33185768127441406,-0.45438075065612793
1747275449577188900,8.72618896484375,-0.2276935577392578,0.15001893043518066,-1.3080599308013916
1747275449593219800,8.7422197265625,0.4780406951904297,0.6285662651062012,-0.44368433952331543
1747275449609246200,8.75824609375,0.16790199279785156,0.6073405742645264,0.11841249465942383
1747275449625294300,8.77429443359375,-0.12087154388427734,-0.12185502052307129,0.37116336822509766
1747275449641321000,8.790321044921875,-0.3522214889526367,-0.2899792194366455,0.586822509765625
1747275449657416000,8.806416015625,0.3175230026245117,-0.30429768562316895,0.5027496814727783
1747275449673460000,8.8224599609375,0.5272216796875,0.16185593605041504,-0.27033352851867676
1747275449689486800,8.83848681640625,0.8173618316650391,0.8363199234008789,-0.9886584281921387
1747275449705531400,8.854531494140625,0.8441877365112305,0.7585742473602295,-1.467973232269287
1747275449721573600,8.87057373046875,1.4407119750976562,-0.5370063781738281,-0.6776750087738037
1747275449737637400,8.886637451171875,2.5064849853515625,-0.8844056129455566,0.9119160175323486
1747275449753672000,8.902671875,1.899764060974121,1.0175161361694336,2.137671947479248
1747275449769696500,8.918696533203125,1.54254150390625,0.7275075912475586,1.1900043487548828
1747275449785696000,8.934696044921875,0.2739744186401367,1.0293552875518799,-0.2953200340270996
1747275449801720300,8.95072021484375,-0.7191429138183594,0.8116292953491211,-1.340916633605957
1747275449817741600,8.966741455078125,-1.011037826538086,-1.1622967720031738,0.39003753662109375
1747275449833767400,8.982767333984375,-2.050604820251465,-1.108635663986206,1.3148062229156494
1747275449849793000,8.99879296875,-2.4065709114074707,-0.07604837417602539,1.219266414642334
1747275449865836000,9.0148359375,-2.809196949005127,0.7988162040710449,-1.5894775390625
1747275449881834500,9.03083447265625,-3.959801435470581,0.4786853790283203,-3.9762802124023438
1747275449897896400,9.046896484375,-3.6966464519500732,0.6785669326782227,-4.430643081665039
1747275449913967600,9.062967529296875,-2.324422836303711,-0.2398548126220703,-2.8065595626831055
1747275449929989600,9.07898974609375,-0.6257781982421875,-0.6311326026916504,-1.6203117370605469
1747275449946027800,9.09502783203125,0.48400354385375977,-0.9378812313079834,1.1863865852355957
1747275449962059500,9.1110595703125,1.6113839149475098,-1.2542405128479004,3.3060338497161865
1747275449978122000,9.1271220703125,20.775592803955078,1.0957443714141846,17.41788101196289
1747275449994157300,9.1431572265625,4.244192123413086,0.9578413963317871,-1.8526034355163574
1747275450010183400,9.159183349609375,3.3044610023498535,0.934722900390625,-3.6029019355773926
1747275450026182100,9.17518212890625,2.4501829147338867,0.1032114028930664,-0.8119382858276367
1747275450042180000,9.19118017578125,-1.926041603088379,-2.3674771785736084,-0.7182965278625488
1747275450058248700,9.207248779296876,-3.2468085289001465,-1.740441083908081,1.4469609260559082
1747275450074278000,9.22327783203125,-2.9032387733459473,0.19506120681762695,2.947500228881836
1747275450090306600,9.239306640625,-1.5113532543182373,1.1372437477111816,2.2018465995788574
1747275450106376200,9.255376220703125,-0.24311447143554688,1.2113795280456543,1.1584157943725586
1747275450122408400,9.271408447265625,-0.9069454669952393,-0.044205665588378906,0.3537440299987793
1747275450138474200,9.28747412109375,-0.9519524574279785,-1.2422387599945068,-0.26393795013427734
1747275450154505700,9.303505615234375,1.1210246086120605,-0.8075292110443115,-0.389678955078125
1747275450170533000,9.319533203125,1.6115798950195312,0.5474367141723633,-0.43331432342529297
1747275450186580200,9.335580322265624,1.1594455242156982,1.3669772148132324,0.02328777313232422
1747275450202589700,9.351589599609374,0.5415483713150024,-0.21909809112548828,0.13573265075683594
1747275450218654500,9.367654541015625,-2.564624309539795,1.4304065704345703,-0.2521991729736328
1747275450234691800,9.38369189453125,-2.268237829208374,-0.2541804313659668,0.08780956268310547
1747275450250721300,9.39972119140625,-0.364957332611084,0.8661656379699707,-1.9819507598876953
1747275450266767600,9.415767578125,-0.8808102011680603,0.7180685997009277,-2.7772512435913086
1747275450282791000,9.431791015625,-0.7877268195152283,-0.17490100860595703,-0.6982660293579102
1747275450298837200,9.447837158203125,0.44734686613082886,-0.5455975532531738,1.3334846496582031
1747275450314876400,9.46387646484375,1.576533317565918,-1.1386842727661133,1.5806922912597656
1747275450330903000,9.479903076171874,4.0194091796875,-2.8705904483795166,1.296339511871338
1747275450346948400,9.4959482421875,3.4662294387817383,-4.16465950012207,-0.12743568420410156
1747275450362946300,9.5119462890625,3.3865408897399902,-4.708014488220215,-0.8047637939453125
1747275450379013400,9.528013427734376,1.1053273677825928,-6.824084758758545,0.5181436538696289
1747275450395038200,9.5440380859375,-0.3790764808654785,-3.7649283409118652,-0.5778555870056152
1747275450411069000,9.56006884765625,0.05712080001831055,-2.8507189750671387,4.43391227722168
1747275450427117800,9.576117919921876,-0.5605239868164062,-3.040797710418701,4.986724376678467
1747275450443150600,9.592150634765625,0.1494135856628418,-2.3593859672546387,3.2994534969329834
1747275450459222800,9.608222900390626,-0.6226944923400879,-0.8652243614196777,2.0480639934539795
1747275450475262700,9.6242626953125,-1.0818305015563965,-0.8424825668334961,3.0618927478790283
1747275450491292000,9.6402919921875,0.19462299346923828,-1.9846868515014648,4.826639652252197
1747275450507295700,9.656295654296875,1.165421485900879,-3.05785870552063,4.060506820678711
1747275450523298000,9.672298095703125,1.0557408332824707,-2.5593769550323486,0.623488187789917
1747275450539410000,9.688409912109375,-2.0358314514160156,-0.3818063735961914,-1.9295520782470703
1747275450555440000,9.704440185546876,-3.8547210693359375,1.09767484664917,-1.1259667873382568
1747275450571476700,9.720476806640624,-3.6167564392089844,-0.47827744483947754,1.9813477993011475
1747275450587520800,9.736520751953124,0.26175498962402344,-2.183544158935547,4.548250675201416
1747275450603549200,9.752549072265625,-1.0776090621948242,-1.8186166286468506,3.2421159744262695
1747275450619617800,9.76861767578125,-1.9390230178833008,-0.7008833885192871,0.461772084236145
1747275450635649000,9.78464892578125,-2.850399971008301,-0.02201247215270996,-1.1620135307312012
1747275450651679700,9.8006796875,-2.9958715438842773,-0.25951099395751953,-0.9681909084320068
1747275450667730400,9.81673046875,-2.6797409057617188,-0.8269178867340088,0.4587981104850769
1747275450683734300,9.832734375,-2.20174503326416,-1.8251254558563232,1.7880678176879883
1747275450699799000,9.848799072265624,-0.44264793395996094,-1.6464046239852905,2.07869029045105
1747275450715832000,9.86483203125,0.17012977600097656,-0.5692753791809082,1.2360994815826416
1747275450731859700,9.880859619140624,-0.4208488464355469,-0.09389114379882812,0.30312561988830566
1747275450747861500,9.896861572265625,-0.5035495758056641,-0.27283966541290283,-0.6260775923728943
1747275450763850200,9.912850341796876,-0.6947851181030273,-0.5979232788085938,-0.45129793882369995
1747275450779882500,9.928882568359375,-0.5105838775634766,-1.231497049331665,0.8248547315597534
1747275450795926300,9.94492626953125,-0.025320053100585938,-1.455161452293396,2.1942899227142334
1747275450811952600,9.96095263671875,-0.9017801284790039,-0.2516111731529236,1.5891773700714111
1747275450828035300,9.977035400390625,-3.248305320739746,0.45001137256622314,-0.9274362921714783
1747275450844032000,9.993031982421876,-3.336822509765625,-0.7755606174468994,-0.3324625492095947
1747275450860095700,10.009095703125,-1.1830101013183594,-1.936499834060669,0.49030041694641113
1747275450876116000,10.025115966796875,0.2503528594970703,-1.0463740825653076,0.0999600887298584
1747275450892138800,10.041138671875,-0.015023231506347656,-0.3909800350666046,0.33973780274391174
1747275450908180000,10.057179931640626,-0.10897350311279297,-0.046551287174224854,0.7070317268371582
1747275450924180200,10.07318017578125,0.43152523040771484,-0.14867615699768066,0.9317474365234375
1747275450940250400,10.08925048828125,0.8507938385009766,-0.6541299819946289,0.18105030059814453
1747275450956293400,10.10529345703125,0.034030914306640625,-1.1323739290237427,0.1786046028137207
1747275450972319200,10.1213193359375,-0.7601041793823242,-0.6469744443893433,0.71480792760849
1747275450988349400,10.137349365234375,-1.4118547439575195,-0.09307414293289185,1.2606523036956787
1747275451004346000,10.15334619140625,0.46602725982666016,-0.6063961982727051,0.3657721281051636
1747275451020360200,10.169360107421875,-0.19354820251464844,-0.42259711027145386,-0.10246703028678894
1747275451036403200,10.1854033203125,-0.11822128295898438,-0.25115737318992615,0.571331799030304
1747275451052429000,10.201428955078125,0.02390003204345703,-0.42580491304397583,0.7881374359130859
1747275451068481300,10.217481201171875,-0.12187576293945312,-0.5613383054733276,0.5471369624137878
1747275451084489000,10.233489013671875,-0.3382606506347656,-0.42400500178337097,0.7762923240661621
1747275451100565000,10.24956494140625,0.07726573944091797,-0.5520190596580505,0.9897928833961487
1747275451116607000,10.26560693359375,-0.23273849487304688,-0.5588045120239258,0.48173779249191284
1747275451132634000,10.281634033203124,0.1535024642944336,-0.5492662191390991,-0.3455294966697693
1747275451148686800,10.297686767578124,0.2468252182006836,-0.2198157161474228,0.07527722418308258
1747275451164683300,10.313683349609375,-0.047844886779785156,-0.3299075961112976,0.27056628465652466
1747275451180756500,10.329756591796874,-0.36907005310058594,-0.11514043807983398,0.19981732964515686
1747275451196802600,10.345802490234375,-0.32972049713134766,-0.14799901843070984,0.045384764671325684
1747275451212832000,10.36183203125,0.3197317123413086,-0.32965612411499023,0.6515299081802368
1747275451228844800,10.3778447265625,0.5287542343139648,-0.17659521102905273,0.5833998918533325
1747275451244857000,10.393857177734375,2.593283176422119,-0.11871218681335449,0.10057490319013596
1747275451260889900,10.409889892578125,1.5449609756469727,-0.3452678620815277,0.09161452949047089
1747275451276912000,10.425912109375,1.8384528160095215,-0.6439781188964844,0.21088266372680664
1747275451292934400,10.441934326171875,1.8828325271606445,-0.8165030479431152,0.032937899231910706
1747275451309024300,10.458024169921876,0.4030942916870117,-0.2088480293750763,0.42014825344085693
1747275451325023200,10.474023193359375,0.27860450744628906,-0.24761679768562317,0.3214433193206787
1747275451341088300,10.490088134765625,0.24511051177978516,-0.19164496660232544,0.2102033495903015
1747275451357130800,10.506130859375,-0.37015247344970703,-0.2165587842464447,0.167096808552742
1747275451373157600,10.52215771484375,-0.11394023895263672,-0.22638556361198425,0.2161111682653427
1747275451389213400,10.53821337890625,0.010603904724121094,-0.1693800836801529,0.25488632917404175
1747275451405273600,10.554273681640625,-0.1112823486328125,-0.24533122777938843,0.1580122709274292
1747275451421340700,10.570340576171875,0.11874198913574219,-0.20376357436180115,0.20104345679283142
1747275451437384400,10.586384521484375,-0.029544830322265625,-0.1609598696231842,0.199165940284729
1747275451453410600,10.60241064453125,-0.13475608825683594,-0.22149138152599335,0.17573955655097961
1747275451469422800,10.6184228515625,0.04014396667480469,-0.1758364588022232,0.15901406109333038
1747275451485425400,10.63442529296875,-0.057926177978515625,-0.1410684585571289,0.17213045060634613
1747275451501460500,10.65046044921875,-0.1152791976928711,-0.1797432005405426,0.1602725088596344
1747275451517508600,10.666508544921875,-0.048150062561035156,-0.12054327130317688,0.14384157955646515
1747275451533536000,10.682535888671875,-0.014586448669433594,-0.08114328980445862,0.14645949006080627
1747275451549590500,10.698590576171876,-0.06005287170410156,-0.14192849397659302,0.10559577494859695
1747275451565606100,10.714606201171875,-0.052867889404296875,-0.07671739161014557,0.12383266538381577
1747275451581674200,10.73067431640625,-0.02893543243408203,-0.08438360691070557,0.1259872317314148
1747275451597749200,10.746749267578124,-0.057682037353515625,-0.12154395878314972,0.05965016037225723
1747275451613772800,10.762772705078126,-0.043338775634765625,-0.09688117355108261,0.08058144152164459
1747275451629829000,10.7788291015625,-0.009842872619628906,-0.0802580937743187,0.10678449273109436
1747275451645831700,10.794831787109375,-0.08887863159179688,-0.09996798634529114,0.07102879881858826
1747275451661905000,10.81090478515625,-0.04820442199707031,-0.0575454980134964,0.0909944474697113
1747275451677951000,10.826950927734375,-0.007526397705078125,-0.0541742667555809,0.09202630817890167
1747275451693976300,10.842976318359375,-0.09134864807128906,-0.06340588629245758,0.05742137134075165
1747275451709990000,10.858989990234376,-0.053066253662109375,-0.06044153869152069,0.052215393632650375
1747275451726024200,10.875024169921875,0.028314590454101562,-0.06991252303123474,0.07118150591850281
1747275451742056000,10.891055908203125,-0.10099506378173828,-0.06522152572870255,0.05179564654827118
1747275451758100700,10.907100830078125,-0.0866537094116211,-0.06306562572717667,0.0709119513630867
1747275451774129700,10.923129638671876,-0.014851570129394531,-0.03701870143413544,0.05437297001481056
1747275451790226700,10.939226806640624,-0.07233238220214844,-0.054381243884563446,0.02856431156396866
1747275451806224400,10.955224365234375,-0.04841136932373047,-0.06948801875114441,0.04386849328875542
1747275451822295800,10.9712958984375,-0.017309188842773438,-0.031956031918525696,0.0518149770796299
1747275451838337000,10.9873369140625,-0.06999492645263672,-0.04021637886762619,0.03095993399620056
1747275451854360600,11.003360595703125,-0.06522274017333984,-0.03426756709814072,0.04874715954065323
1747275451870412300,11.019412353515625,-0.026927947998046875,-0.01638135313987732,0.08810237795114517
1747275451886483200,11.035483154296875,-0.10834598541259766,-0.029862239956855774,0.03855995461344719
1747275451902559200,11.051559326171875,-0.053290367126464844,-0.05509895831346512,0.030062973499298096
1747275451918609000,11.06760888671875,0.0065479278564453125,-0.04438955336809158,0.04572989046573639
1747275451934638800,11.083638916015625,-0.08923625946044922,-0.05796181410551071,0.02075018547475338
1747275451950649600,11.099649658203125,-0.04375743865966797,-0.05932369828224182,0.043567024171352386
1747275451966649600,11.115649658203125,-0.027017593383789062,-0.04138694703578949,0.05675552785396576
1747275451982683600,11.13168359375,-0.08209991455078125,-0.057073116302490234,0.03156596049666405
1747275451998728000,11.14772802734375,-0.05817413330078125,-0.03451947867870331,0.03292958065867424
1747275452014753000,11.1637529296875,-0.0414276123046875,-0.019159451127052307,0.02725619450211525
1747275452030812700,11.179812744140625,-0.05580615997314453,-0.05194962024688721,0.014312446117401123
1747275452046847700,11.19584765625,-0.04623889923095703,-0.04879380762577057,0.03505910187959671
1747275452062925300,11.21192529296875,-0.04625225067138672,-0.026585593819618225,0.036686383187770844
1747275452078990600,11.227990478515625,-0.08935737609863281,-0.06430729478597641,0.04045611619949341
1747275452095014400,11.244014404296875,-0.06303691864013672,-0.027408786118030548,0.032350875437259674
1747275452111064600,11.260064697265625,-0.03192615509033203,-0.019357480108737946,0.05076448246836662
1747275452127058000,11.276057861328125,-0.055873870849609375,-0.03068377822637558,0.03096430003643036
1747275452143126500,11.29212646484375,-0.058277130126953125,-0.01824803650379181,0.020793363451957703
1747275452159169500,11.30816943359375,-0.031951904296875,-0.03451801836490631,0.003622204065322876
1747275452175194400,11.3241943359375,-0.06547832489013672,-0.03187564015388489,0.02223549410700798
1747275452191204600,11.34020458984375,-0.07745361328125,-0.02442096918821335,0.05032176151871681
1747275452207247000,11.3562470703125,-0.022393226623535156,-0.01686248928308487,0.03762473911046982
1747275452223284000,11.372283935546875,-0.055919647216796875,-0.04524943232536316,0.008071113377809525
1747275452239331800,11.388331787109376,-0.036774635314941406,-0.051967330276966095,0.026594411581754684
1747275452255357700,11.404357666015626,-0.043967247009277344,-0.015535734593868256,0.032905153930187225
1747275452271447600,11.420447509765625,-0.12777137756347656,-0.015308871865272522,0.02745375782251358
1747275452287441400,11.43644140625,-0.06792163848876953,-0.005527034401893616,0.06033559516072273
1747275452303516700,11.4525166015625,-0.06074237823486328,-0.0006630346179008484,0.0381803959608078
1747275452319559000,11.468558837890624,-0.07989978790283203,-0.05322655290365219,0.018537160009145737
1747275452335609600,11.484609619140626,-0.01765727996826172,-0.02382686734199524,0.023082897067070007
1747275452351665200,11.5006650390625,0.013459205627441406,-0.025959454476833344,-0.001223824918270111
1747275452367690500,11.5166904296875,-0.04640007019042969,-0.052101269364356995,0.010311979800462723
1747275452383762700,11.5327626953125,-0.09189510345458984,-0.008852511644363403,0.028870951384305954
1747275452399802000,11.548802001953124,-0.08950328826904297,-0.0064265429973602295,0.05959104746580124
1747275452415824400,11.564824462890625,-0.10147857666015625,-0.01095794141292572,0.04724603518843651
1747275452431834400,11.58083447265625,-0.046417236328125,-0.013082742691040039,0.025218699127435684
1747275452447842000,11.596842041015625,-0.029664039611816406,-0.027068018913269043,0.025054290890693665
1747275452463877000,11.612877197265625,-0.04643058776855469,-0.04338233172893524,0.0008828751742839813
1747275452479918300,11.62891845703125,-0.02249622344970703,-0.028637558221817017,0.012606050819158554
1747275452495945500,11.644945556640625,-0.0608062744140625,-0.016409501433372498,0.03627294301986694
1747275452511957500,11.66095751953125,-0.0943307876586914,-0.018512576818466187,0.05256180837750435
1747275452527947800,11.67694775390625,-0.07279014587402344,-0.022924885153770447,0.061570052057504654
1747275452543977500,11.6929775390625,-0.03209495544433594,-0.020168006420135498,0.020642954856157303
1747275452560066800,11.70906689453125,-0.024918556213378906,-0.04363691806793213,0.0011814311146736145
1747275452576095000,11.725094970703125,-0.024926185607910156,-0.04083438217639923,0.013111785054206848
1747275452592192500,11.741192626953126,-0.04169178009033203,-0.028509780764579773,0.0034272074699401855
1747275452608189700,11.757189697265625,-0.07281970977783203,-0.013824999332427979,0.031942881643772125
1747275452624223000,11.773222900390625,-0.07282733917236328,-0.011273860931396484,0.048401590436697006
1747275452640262100,11.78926220703125,-0.09198284149169922,-0.022956103086471558,0.016995202749967575
1747275452656286700,11.80528662109375,-0.05607795715332031,-0.041585773229599,-0.00008371472358703613
1747275452672294700,11.821294677734375,0.0061664581298828125,-0.03646332025527954,-0.004813220351934433
1747275452688290300,11.837290283203124,-0.027357101440429688,-0.043274253606796265,0.002256929874420166
1747275452704322800,11.85332275390625,-0.08003997802734375,-0.026172250509262085,0.04262286797165871
1747275452720367400,11.869367431640624,-0.053704261779785156,-0.011578619480133057,0.035116150975227356
1747275452736394200,11.885394287109374,-0.08483695983886719,-0.008988916873931885,0.02035413682460785
1747275452752449800,11.90144970703125,-0.07765769958496094,-0.006475791335105896,0.029655810445547104
1747275452768448800,11.91744873046875,-0.036957740783691406,-0.025301486253738403,0.010338950902223587
1747275452784481000,11.93348095703125,-0.029783248901367188,-0.029818475246429443,0.0031063519418239594
1747275452800516000,11.94951611328125,-0.04654216766357422,-0.024898141622543335,-0.006566688418388367
1747275452816539600,11.96553955078125,-0.03696632385253906,-0.017755508422851562,0.014789436012506485
1747275452832551200,11.98155126953125,-0.06809425354003906,-0.0010990500450134277,0.016940761357545853
1747275452848547300,11.99754736328125,-0.08006477355957031,-0.022648900747299194,0.009673044085502625
1747275452864578300,12.013578369140625,-0.04654884338378906,-0.012851029634475708,0.026209697127342224
1747275452880622000,12.0296220703125,-0.027399063110351562,-0.022192776203155518,-0.0026026740670204163
1747275452896650000,12.04564990234375,-0.03937530517578125,-0.02668708562850952,-0.0050899796187877655
1747275452912659500,12.061659423828125,-0.03458881378173828,-0.01449631154537201,0.004466179758310318
1747275452928655400,12.0776552734375,-0.051346778869628906,-0.014576449990272522,0.006634414196014404
1747275452944687400,12.093687255859376,-0.0776815414428711,-0.009990990161895752,0.02310868725180626
1747275452960727000,12.10972705078125,-0.08965587615966797,0.0020281225442886353,0.04209531471133232
1747275452976755700,12.125755615234375,-0.06332111358642578,-0.02175898849964142,0.03241819888353348
1747275452992767000,12.14176708984375,-0.0393829345703125,-0.038289666175842285,0.01075451448559761
1747275453008759300,12.15775927734375,-0.027416229248046875,-0.021261826157569885,0.0034109316766262054
1747275453024796400,12.17379638671875,-0.027421951293945312,-0.02819041907787323,0.0030955299735069275
1747275453040875000,12.189875,-0.07531070709228516,-0.008867576718330383,0.0076998136937618256
1747275453056897500,12.2058974609375,-0.07770442962646484,-0.004026532173156738,0.04596561938524246
1747275453072906000,12.221906005859376,-0.06813240051269531,0.00328826904296875,0.029032118618488312
1747275453088903700,12.237903564453125,-0.07291984558105469,-0.0038090497255325317,0.009939569979906082
1747275453104937700,12.253937744140625,-0.048984527587890625,-0.0204458087682724,0.014613382518291473
1747275453120981200,12.269981201171875,-0.022650718688964844,-0.027462631464004517,-0.002215445041656494
1747275453137009400,12.286009521484376,-0.056168556213378906,-0.025076985359191895,-0.0023280419409275055
1747275453153026300,12.3020263671875,-0.05138206481933594,-0.02968217432498932,0.03810294345021248
1747275453169032000,12.318031982421875,-0.06814765930175781,-0.0007923692464828491,0.033013954758644104
1747275453185066000,12.33406591796875,-0.08730220794677734,0.006455525755882263,0.008941560983657837
1747275453201109500,12.350109619140625,-0.0489959716796875,-0.02452114224433899,0.01842724159359932
1747275453217132500,12.366132568359374,-0.02505970001220703,-0.02200499176979065,0.013614974915981293
1747275453233143300,12.382143310546875,-0.022665977478027344,-0.026778951287269592,0.0015238970518112183
1747275453249141500,12.3981416015625,-0.04421520233154297,-0.009976893663406372,0.006134554743766785
1747275453265174500,12.414174560546876,-0.04181861877441406,-0.017112627625465393,0.0035232417285442352
1747275453281214700,12.430214599609375,-0.08730888366699219,-0.005308791995048523,0.012889988720417023
1747275453297241300,12.446241455078125,-0.04660797119140625,-0.017386332154273987,0.020031817257404327
1747275453313251800,12.462251953125,-0.046608924865722656,-0.010218724608421326,0.027033373713493347
1747275453329290000,12.4782900390625,-0.03942584991455078,-0.03165222704410553,0.005324430763721466
1747275453345317400,12.4943173828125,-0.020273208618164062,-0.007605001330375671,-0.008934371173381805
1747275453361357000,12.510357177734376,-0.04900360107421875,-0.02432239055633545,0.014885682612657547
1747275453377384200,12.52638427734375,-0.0633687973022461,-0.01244005560874939,0.02683376893401146
1747275453393398000,12.54239794921875,-0.0681600570678711,0.001822158694267273,0.03149082884192467
1747275453409399600,12.558399658203125,-0.06336688995361328,-0.015022948384284973,0.024327874183654785
1747275453425434600,12.5744345703125,-0.06337451934814453,-0.014802291989326477,0.02891473099589348
1747275453441477000,12.59047705078125,-0.032248497009277344,-0.019554048776626587,0.007279593497514725
1747275453457501400,12.60650146484375,-0.04182910919189453,-0.024162515997886658,0.002403169870376587
1747275453473514200,12.62251416015625,-0.06816959381103516,-0.035972803831100464,-0.004975937306880951
1747275453489528800,12.63852880859375,-0.0633840560913086,-0.004738673567771912,0.018790923058986664
1747275453505566500,12.65456640625,-0.0657806396484375,0.0025117844343185425,0.05451703816652298
1747275453521612300,12.6706123046875,-0.06338882446289062,-0.0021930336952209473,0.008872918784618378
1747275453537641500,12.686641357421875,-0.051418304443359375,-0.004510402679443359,0.011286403983831406
1747275453553658000,12.702658203125,-0.046627044677734375,-0.016637519001960754,-0.0031270720064640045
1747275453569661200,12.7186611328125,-0.046629905700683594,-0.016543716192245483,-0.008008267730474472
1747275453585698300,12.7346982421875,-0.044236183166503906,-0.011731520295143127,0.013518303632736206
1747275453601744400,12.750744384765625,-0.06578350067138672,-0.006931006908416748,0.006306719034910202
1747275453617771800,12.766771728515625,-0.07775115966796875,-0.007004261016845703,0.020667042583227158
1747275453633783800,12.78278369140625,-0.046630859375,-0.002257406711578369,0.018210340291261673
1747275453649801200,12.79880126953125,-0.03705024719238281,-0.0263708233833313,-0.008180886507034302
1747275453665858000,12.814858154296875,-0.04184436798095703,-0.02379477024078369,0.0013422220945358276
1747275453681898800,12.830898681640624,-0.044234275817871094,-0.018958881497383118,0.00362536683678627
1747275453697926000,12.84692578125,-0.039450645446777344,-0.030902743339538574,-0.003750629723072052
1747275453713945900,12.86294580078125,-0.06099700927734375,-0.009412989020347595,0.027317121624946594
1747275453729948000,12.878947998046876,-0.0681772232055664,-0.0023198723793029785,0.024790238589048386
1747275453745976000,12.89497607421875,-0.05620861053466797,-0.00463615357875824,0.024700012058019638
1747275453762013200,12.91101318359375,-0.0538177490234375,-0.018975481390953064,-0.006309568881988525
1747275453778043000,12.92704296875,-0.027482032775878906,-0.03085412085056305,0.0008641332387924194
1747275453794053000,12.94305322265625,-0.04663372039794922,-0.026033371686935425,-0.011156652122735977
1747275453810077200,12.9590771484375,-0.05860614776611328,-0.01161225140094757,0.003169037401676178
1747275453826114600,12.975114501953126,-0.05621528625488281,-0.009184151887893677,0.01763812080025673
1747275453842162700,12.99116259765625,-0.06578826904296875,0.0026745498180389404,0.027239009737968445
1747275453858189300,13.007189208984375,-0.04184532165527344,-0.009290173649787903,0.005622409284114838
1747275453874199800,13.02319970703125,-0.039450645446777344,-0.01164981722831726,0.02230989560484886
1747275453890196500,13.039196533203125,-0.051422119140625,-0.006925567984580994,0.0030264146625995636
1747275453906234000,13.055234130859375,-0.04424285888671875,-0.018944650888442993,-0.020953767001628876
1747275453922279700,13.07127978515625,-0.049027442932128906,-0.016576111316680908,0.01017645001411438
1747275453938307600,13.0873076171875,-0.06818580627441406,-0.016636446118354797,0.03148642182350159
1747275453954320400,13.1033203125,-0.07536792755126953,-0.004687666893005371,0.024293404072523117
1747275453970349300,13.119349365234376,-0.051425933837890625,0.0025534629821777344,-0.006848633289337158
1747275453986382800,13.1353828125,-0.06339454650878906,-0.014198601245880127,0.005124431103467941
1747275454002458600,13.151458740234375,-0.029877662658691406,-0.028517305850982666,0.0004892610013484955
1747275454018486300,13.167486328125,-0.03466320037841797,-0.0334172248840332,0.0027356818318367004
1747275454034505500,13.18350537109375,-0.061000823974609375,-0.04532290995121002,0.0003094524145126343
1747275454050502700,13.199502685546875,-0.05621623992919922,-0.00938144326210022,0.0050222426652908325
1747275454066533000,13.215533203125,-0.06579208374023438,-0.00922335684299469,0.016765344887971878
1747275454082576100,13.231576171875,-0.05622100830078125,0.0029459744691848755,0.007153812795877457
1747275454098599700,13.247599609375,-0.04903602600097656,-0.02090078592300415,-0.0022191889584064484
1747275454114674700,13.2636748046875,-0.032279014587402344,-0.018416479229927063,0.007330205291509628
1747275454130703000,13.279703125,-0.046645164489746094,-0.02328324317932129,0.00486316904425621
1747275454146737700,13.295737548828125,-0.056224822998046875,-0.00893324613571167,-0.0071443431079387665
1747275454162778400,13.3117783203125,-0.0681915283203125,-0.001852378249168396,0.0024866797029972076
1747275454178805500,13.327805419921875,-0.0681924819946289,-0.020885705947875977,-0.007178403437137604
1747275454202822100,13.351822265625,-0.04424858093261719,-0.011438801884651184,0.011939838528633118
1747275454218854100,13.367854248046875,-0.037064552307128906,-0.023500561714172363,-0.0049755871295928955
1747275454234869000,13.383868896484374,-0.0418548583984375,-0.01876993477344513,-0.0002954825758934021
1747275454250901800,13.39990185546875,-0.049041748046875,-0.033108681440353394,0.02103220671415329
1747275454266930400,13.415930419921875,-0.07537555694580078,0.00038313865661621094,0.008769601583480835
1747275454282981400,13.4319814453125,-0.05383014678955078,-0.026025325059890747,0.020769454538822174
1747275454299008300,13.44800830078125,-0.05382537841796875,0.002671346068382263,-0.0032730400562286377
1747275454315069000,13.46406884765625,-0.05143451690673828,-0.016462743282318115,-0.0009565651416778564
1747275454331103000,13.48010302734375,-0.05861854553222656,-0.04037192463874817,0.0014012902975082397
1747275454347131100,13.496131103515625,-0.053833961486816406,0.0004652440547943115,0.025274410843849182
1747275454363137000,13.512136962890626,-0.04425525665283203,-0.00905616581439972,0.006006106734275818
1747275454379165000,13.5281650390625,-0.06580543518066406,-0.01147422194480896,0.010652400553226471
1747275454395177500,13.544177490234375,-0.061016082763671875,0.0027853846549987793,0.017715811729431152
1747275454411209700,13.560209716796875,-0.06819820404052734,-0.023433327674865723,-0.008644789457321167
1747275454427239000,13.576239013671875,-0.022713661193847656,-0.013811975717544556,0.003392733633518219
1747275454443282000,13.592281982421875,-0.04186820983886719,-0.011319950222969055,-0.0039054974913597107
1747275454459308300,13.608308349609375,-0.05383872985839844,-0.03276810050010681,0.012814223766326904
1747275454475318500,13.624318603515626,-0.05383872985839844,-0.013571247458457947,0.01271861046552658
1747275454491374000,13.6403740234375,-0.056235313415527344,-0.006423816084861755,0.012674592435359955
1747275454507404800,13.65640478515625,-0.07299327850341797,-0.013775691390037537,0.003007464110851288
1747275454523414000,13.6724140625,-0.05623340606689453,-0.013761550188064575,0.01496616005897522
1747275454539441400,13.68844140625,-0.03468513488769531,-0.0207940936088562,-0.0018514245748519897
1747275454555452200,13.7044521484375,-0.04665851593017578,-0.02081027626991272,0.0005990713834762573
1747275454571482000,13.720482177734375,-0.041871070861816406,-0.008672982454299927,0.022066496312618256
1747275454587511300,13.73651123046875,-0.049057960510253906,-0.015733763575553894,0.026825815439224243
1747275454603516000,13.752515869140625,-0.07539558410644531,-0.0037157535552978516,0.017093688249588013
1747275454619547100,13.768547119140624,-0.051451683044433594,-0.0012885481119155884,0.017085358500480652
1747275454635559000,13.784558837890625,-0.05145549774169922,-0.013250395655632019,0.007478855550289154
1747275454651591000,13.8005908203125,-0.04187488555908203,-0.008550718426704407,-0.009221598505973816
1747275454667622100,13.8166220703125,-0.03708934783935547,-0.020458579063415527,-0.002007007598876953
1747275454683668500,13.83266845703125,-0.05384635925292969,-0.013281479477882385,0.0027210786938667297
1747275454699697200,13.848697265625,-0.06821441650390625,-0.02525651454925537,0.014606572687625885
1747275454715709400,13.86470947265625,-0.05863475799560547,0.01067344844341278,0.01919730007648468
1747275454731743500,13.880743408203125,-0.06581974029541016,-0.010935172438621521,0.0168369859457016
1747275454747775200,13.896775146484375,-0.0538482666015625,-0.006166726350784302,0.007206283509731293
1747275454763791400,13.912791259765624,-0.046661376953125,-0.006171822547912598,0.01448717713356018
1747275454779867400,13.928867431640626,-0.05624103546142578,-0.025378763675689697,-0.009583435952663422
1747275454795881000,13.944880859375,-0.05145454406738281,-0.03025585412979126,0.011886820197105408
1747275454811921000,13.9609208984375,-0.051453590393066406,0.003186941146850586,0.01663871854543686
1747275454827941400,13.97694140625,-0.04666328430175781,-0.00878116488456726,-0.0002522692084312439
1747275454843950800,13.992950927734375,-0.05145263671875,-0.004001423716545105,0.011590234935283661
1747275454859980300,14.008980224609376,-0.05145263671875,-0.03272494673728943,0.001980021595954895
1747275454875986200,14.024986083984375,-0.037095069885253906,-0.03253810107707977,-0.012498170137405396
1747275454892010000,14.041010009765625,-0.0634307861328125,-0.013283103704452515,0.0018602162599563599
1747275454908040200,14.057040283203126,-0.05145835876464844,0.0009296834468841553,0.004095204174518585
1747275454924049400,14.07304931640625,-0.046668052673339844,-0.025463804602622986,0.00891585648059845
1747275454940078300,14.089078369140625,-0.06582069396972656,-0.00873883068561554,0.015930213034152985
1747275454956087600,14.105087646484375,-0.03948402404785156,-0.025556594133377075,0.02779218554496765
1747275454972163600,14.12116357421875,-0.04905986785888672,-0.02071976661682129,-0.003235936164855957
1747275454988193800,14.13719384765625,-0.049065589904785156,-0.013463035225868225,0.011004075407981873
1747275455004227300,14.153227294921875,-0.05864429473876953,-0.011099502444267273,-0.010700695216655731
1747275455020252000,14.169251953125,-0.056250572204589844,0.003235355019569397,0.03447376936674118
1747275455036285400,14.185285400390624,-0.07301139831542969,-0.011191979050636292,0.0032610073685646057
1747275455052317700,14.201317626953125,-0.061038970947265625,0.0007414966821670532,0.012763552367687225
1747275455068339500,14.21733935546875,-0.0658254623413086,-0.01605604588985443,0.01042599231004715
1747275455084348200,14.23334814453125,-0.053852081298828125,-0.011395767331123352,-0.008881356567144394
1747275455100374800,14.249374755859375,-0.04906749725341797,-0.02097994089126587,0.0078095123171806335
1747275455116382500,14.265382568359374,-0.06343269348144531,-0.028105393052101135,0.010085918009281158
1747275455132414200,14.281414306640626,-0.08019351959228516,-0.01849837601184845,0.0026259198784828186
1747275455148444000,14.29744384765625,-0.05146598815917969,-0.02569495141506195,0.019249193370342255
1747275455164502500,14.31350244140625,-0.05865001678466797,-0.013791128993034363,0.016555190086364746
1747275455180531700,14.32953173828125,-0.05625629425048828,0.0077675580978393555,0.001895114779472351
1747275455196537900,14.345537841796874,-0.053863525390625,-0.009108200669288635,0.018359705805778503
1747275455212565800,14.361565673828125,-0.056258201599121094,-0.013747990131378174,-0.0032445862889289856
1747275455228592400,14.37759228515625,-0.05147075653076172,-0.008958816528320312,0.003843531012535095
1747275455244609500,14.393609619140625,-0.03710460662841797,-0.02097092568874359,0.003702037036418915
1747275455260637400,14.409637451171875,-0.0634469985961914,-0.013763487339019775,0.0033744126558303833
1747275455276647200,14.425647216796875,-0.05626392364501953,0.003043532371520996,0.010436579585075378
1747275455292674800,14.4416748046875,-0.044295310974121094,-0.013702929019927979,-0.011330176144838333
1747275455308702500,14.457702392578126,-0.05866241455078125,0.005529344081878662,-0.0018589496612548828
1747275455324704800,14.473704833984375,-0.04668998718261719,-0.0232708603143692,-0.004312261939048767
1747275455340732400,14.489732421875,-0.03950691223144531,-0.020896419882774353,0.005157560110092163
1747275455356738000,14.505738037109374,-0.05865955352783203,-0.030591890215873718,0.00016230344772338867
1747275455372762600,14.5217626953125,-0.06105804443359375,-0.011416926980018616,-0.004820667207241058
1747275455388788200,14.537788330078126,-0.06105804443359375,-0.006735756993293762,0.026139453053474426
1747275455404808400,14.553808349609374,-0.03951263427734375,-0.030634805560112,0.011549696326255798
1747275455420835800,14.5698359375,-0.06106281280517578,-0.021122217178344727,0.004105895757675171
1747275455436846000,14.58584619140625,-0.03712177276611328,-0.008992090821266174,-0.0008868798613548279
1747275455452930300,14.601930419921874,-0.051486968994140625,-0.030549660325050354,-0.010619968175888062
1747275455468962800,14.617962890625,-0.0634613037109375,-0.006597071886062622,0.01067398488521576
1747275455484969000,14.633968994140625,-0.03473186492919922,-0.0017699748277664185,0.010513640940189362
1747275455500996000,14.64999609375,0.11849308013916016,-0.006550431251525879,-0.023196421563625336
1747275455517009200,14.666009033203125,-0.041912078857421875,-0.030642837285995483,-0.006382204592227936
1747275455533041000,14.682041015625,-0.070648193359375,-0.01614820957183838,0.014969944953918457
1747275455549071000,14.698071044921875,-0.06346321105957031,-0.018547028303146362,0.003002665936946869
1747275455565088000,14.714087890625,-0.05149650573730469,-0.01861676573753357,-0.0044319406151771545
1747275455581118700,14.73011865234375,-0.051497459411621094,-0.008988142013549805,0.021746933460235596
1747275455597134000,14.746134033203125,-0.05628681182861328,-0.020937353372573853,0.009708546102046967
1747275455613166600,14.76216650390625,-0.044312477111816406,-0.02335396409034729,-0.0023218393325805664
1747275455629195800,14.77819580078125,-0.05389595031738281,-0.013667091727256775,0.002224847674369812
1747275455645244400,14.794244384765625,-0.04192543029785156,-0.0040789395570755005,-0.0027497857809066772
1747275455661277200,14.810277099609374,-0.14487171173095703,-0.03075866401195526,-0.01495499536395073
1747275455677288200,14.8262880859375,-0.08261871337890625,-0.026153892278671265,0.01619599014520645
1747275455693316900,14.84231689453125,-0.037133216857910156,0.00011505186557769775,-0.010316736996173859
1747275455709346000,14.858345947265626,-0.1041707992553711,-0.04297073185443878,-0.012924306094646454
1747275455725375500,14.87437548828125,-0.044315338134765625,-0.0118752121925354,0.008651629090309143
1747275455741403100,14.890403076171875,-0.03473949432373047,-0.026186853647232056,-0.005896233022212982
1747275455757413600,14.90641357421875,-0.10417652130126953,-0.03324207663536072,-0.008598692715168
1747275455773440300,14.922440185546876,-0.029954910278320312,-0.018708229064941406,-0.006064116954803467
1747275455789465300,14.93846533203125,-0.03953361511230469,-0.011570513248443604,-0.027614496648311615
1747275455805472000,14.954471923828125,-0.0874185562133789,-0.028289154171943665,0.005854427814483643
1747275455821500400,14.97050048828125,-0.008412361145019531,-0.004380136728286743,0.00111301988363266
1747275455837509000,14.986509033203125,-0.04432201385498047,-0.004324868321418762,0.005940943956375122
1747275455853540000,15.0025400390625,-0.06826210021972656,-0.023635134100914,-0.013221122324466705
1747275455869569300,15.0185693359375,-0.04192829132080078,-0.016397550702095032,-0.006166763603687286
1747275455885595000,15.034594970703125,-0.06108379364013672,-0.011675849556922913,-0.00623716413974762
1747275455901620700,15.050620849609375,-0.07784175872802734,-0.028391018509864807,0.0032656490802764893
1747275455917627000,15.066626953125,-0.037138938903808594,0.0003396272659301758,-0.011119462549686432
1747275455933660700,15.08266064453125,-0.06108570098876953,-0.018775522708892822,-0.001754574477672577
1747275455949690000,15.098690185546875,-0.06108856201171875,-0.011491090059280396,-0.0067587122321128845
1747275455965697000,15.114697021484375,-0.03714942932128906,-0.01134626567363739,0.009926550090312958
1747275455981725700,15.1307255859375,-0.053913116455078125,-0.013544172048568726,0.0025615841150283813
1747275455997735400,15.1467353515625,-0.07067489624023438,-0.015794992446899414,-0.011990398168563843
1747275456013768400,15.1627685546875,-0.046730995178222656,-0.022968634963035583,-0.002352088689804077
1747275456029801700,15.1788017578125,-0.05151939392089844,-0.013341277837753296,0.004837371408939362
1747275456045839000,15.194839111328125,-0.04673576354980469,-0.013246074318885803,-0.009520895779132843
1747275456061866800,15.21086669921875,-0.044342994689941406,0.008370921015739441,-0.016935739666223526
1747275456077878000,15.2268779296875,-0.022795677185058594,0.008274510502815247,-0.024359185248613358
1747275456093911300,15.242911376953124,-0.053917884826660156,-0.018300771713256836,-0.007790066301822662
1747275456109942500,15.258942626953125,0.12804031372070312,-0.032674118876457214,-0.005491025745868683
1747275456125948200,15.2749482421875,0.0729684829711914,-0.09023021161556244,-0.04011038318276405
1747275456141974000,15.29097412109375,-0.48248863220214844,-0.052586063742637634,-0.1130145788192749
1747275456157985500,15.306985595703125,0.0131072998046875,0.08437322825193405,0.19370689988136292
1747275456174013400,15.323013427734375,0.04423332214355469,0.20623409748077393,0.08570268005132675
1747275456190050800,15.33905078125,-0.3101043701171875,-0.050685107707977295,-0.10874322801828384
1747275456206086100,15.355086181640624,0.12085151672363281,-0.09782320261001587,-0.0023012086749076843
1747275456222115600,15.371115478515625,0.18070220947265625,-0.037472859025001526,-0.04242245480418205
1747275456238127000,15.387127197265626,-0.05632591247558594,-0.14729586243629456,-0.1982155293226242
1747275456254159000,15.4031591796875,-0.01562976837158203,-0.01711609959602356,-0.005833044648170471
1747275456270189600,15.419189453125,-0.15688323974609375,0.17131666839122772,0.16587227582931519
1747275456286199000,15.435198974609374,-0.3148975372314453,-0.030510425567626953,0.10256557911634445
1747275456302227700,15.451227783203125,-0.04436206817626953,0.027422845363616943,-0.009874828159809113
1747275456318235600,15.467235595703125,0.18547725677490234,0.013907372951507568,-0.07150011509656906
1747275456334288000,15.483287841796875,-0.044368743896484375,-0.1368444710969925,-0.12149052321910858
1747275456358325500,15.507325439453124,0.044219970703125,0.02414190024137497,-0.000745818018913269
1747275456374352000,15.523351806640624,-0.05154705047607422,-0.014453887939453125,0.022914133965969086
1747275456390387000,15.539386962890624,-0.2837820053100586,0.035222478210926056,0.0938834398984909
1747275456406431200,15.55543115234375,-0.15210437774658203,0.09267184138298035,0.14866513013839722
1747275456422457300,15.571457275390625,-0.015638351440429688,-0.038508832454681396,-0.03089192509651184
1747275456438470400,15.587470458984376,0.02026844024658203,-0.10496927797794342,-0.14534956216812134
1747275456454469600,15.6034697265625,0.16631221771240234,-0.05647478997707367,-0.05588256195187569
1747275456470501600,15.619501708984375,-0.03001880645751953,-0.06818230450153351,-0.03420983627438545
1747275456486542300,15.635542236328124,-0.17846107482910156,-0.008292540907859802,0.012851230800151825
1747275456502567000,15.65156689453125,-0.07072162628173828,0.09914194047451019,0.09845577925443649
1747275456518575600,15.66757568359375,-0.15451812744140625,0.06276358664035797,0.028684191405773163
1747275456534607600,15.683607666015625,-0.19281864166259766,-0.0068881213665008545,-0.007239088416099548
1747275456550639600,15.6996396484375,0.09687328338623047,-0.03254309296607971,-0.05663420632481575
1747275456566682600,15.7156826171875,0.11123275756835938,-0.0775178074836731,-0.10167540609836578
1747275456582707700,15.731707763671874,-0.056362152099609375,-0.046157777309417725,-0.058259062469005585
1747275456598716400,15.74771630859375,-0.05396461486816406,0.027797214686870575,0.05180162936449051
1747275456614710300,15.763710205078125,-0.15452098846435547,0.018051594495773315,0.07273689657449722
1747275456630739200,15.7797392578125,-0.14995288848876953,-1.4914922714233398,0.9224971532821655
1747275456646768600,15.7957685546875,0.02682971954345703,-0.9682629108428955,0.5268741846084595
1747275456662791400,15.81179150390625,-0.03313159942626953,0.5724572539329529,-0.3301638066768646
1747275456678794500,15.82779443359375,0.000377655029296875,0.9194110631942749,-1.1768102645874023
1747275456694818800,15.84381884765625,-0.03310585021972656,0.4808223247528076,-0.7596460580825806
1747275456710841900,15.859841796875,-0.47614574432373047,0.1686633825302124,-0.32405591011047363
1747275456726879200,15.875879150390626,-0.11752605438232422,-0.5682334303855896,-0.7844575643539429
1747275456742901800,15.89190185546875,0.18577289581298828,-0.7025188207626343,-0.666569173336029
1747275456758907600,15.90790771484375,-0.08795452117919922,-0.11519104242324829,-0.34261518716812134
1747275456774905600,15.923905517578126,-0.043183326721191406,0.4030289351940155,0.20230558514595032
1747275456790935600,15.939935546875,0.08524417877197266,-0.3794611096382141,-0.030506161972880363
1747275456806973700,15.9559736328125,-0.577484130859375,-1.1281936168670654,0.567245602607727
1747275456822995200,15.9719951171875,-0.8151569366455078,-1.125606656074524,1.434654712677002
1747275456838999000,15.9879990234375,-1.4848546981811523,0.3005049228668213,-0.10198955982923508
1747275456855031800,16.00403173828125,-1.6097049713134766,0.8499925136566162,-1.897381067276001
1747275456871095800,16.020095703125,-3.026599884033203,0.9970750212669373,-2.265449047088623
1747275456887117600,16.03611767578125,-3.748074531555176,-0.9613306522369385,1.6633349657058716
1747275456903142700,16.052142578125,-3.8175525665283203,-1.840322494506836,1.853167176246643
1747275456919185700,16.068185546875,-2.9847278594970703,-0.825049638748169,0.13550019264221191
1747275456935178200,16.08417822265625,-0.9512996673583984,-1.1275043487548828,-0.628565788269043
1747275456951238700,16.10023876953125,0.8013935089111328,1.031306266784668,-3.6311168670654297
1747275456967259100,16.116259033203125,-1.0068674087524414,1.4895676374435425,-5.3152384757995605
1747275456983284000,16.132283935546877,-3.02510929107666,0.9153335094451904,-3.3676302433013916
1747275456999324000,16.148323974609376,-4.937914848327637,-0.1652907431125641,-0.894681453704834
1747275457015343400,16.16434326171875,-5.879093170166016,-0.5739456415176392,0.16393041610717773
1747275457031362000,16.180362060546877,-5.2681050300598145,-0.9280093908309937,0.3967294692993164
1747275457047386000,16.19638623046875,-3.8695688247680664,0.6580938100814819,-0.011712074279785156
1747275457063409700,16.21240966796875,-2.873685836791992,-1.2094154357910156,2.2155513763427734
1747275457079450000,16.2284501953125,-1.1360726356506348,-1.6175436973571777,2.7396745681762695
1747275457095444000,16.24444384765625,-0.11737060546875,-0.8676128387451172,1.7357149124145508
1747275457111458300,16.260458251953125,-0.36588335037231445,-0.35619187355041504,2.185784339904785
1747275457127481000,16.276481201171876,-0.7759405374526978,-1.143845558166504,3.86899995803833
1747275457143507000,16.2925068359375,-0.8788982629776001,-2.3578896522521973,4.790579319000244
1747275457159546400,16.30854638671875,-0.4931015372276306,-3.122633457183838,4.637702941894531
1747275457175567600,16.324567626953126,0.1632978767156601,-2.9901766777038574,3.348496437072754
1747275457191630000,16.340630126953126,1.558677315711975,-3.031607151031494,3.445301055908203
1747275457207653400,16.3566533203125,1.9788283109664917,-2.5570662021636963,4.292414665222168
1747275457223679200,16.37267919921875,2.130856513977051,-1.9845364093780518,4.616221904754639
1747275457239721000,16.388720947265625,1.5749866962432861,-0.8007287979125977,3.8749961853027344
1747275457255715600,16.404715576171874,0.5420966148376465,0.19935941696166992,2.5528550148010254
1747275457271735300,16.4207353515625,0.3337702751159668,-0.35428714752197266,1.1412177085876465
1747275457287765000,16.436764892578125,0.8547282218933105,-0.6627025604248047,-0.12905263900756836
1747275457303786000,16.452785888671876,0.988105058670044,-1.260218620300293,-0.21227788925170898
1747275457319829800,16.468829833984376,1.1065034866333008,-1.5257079601287842,0.3907198905944824
1747275457335863000,16.484863037109374,0.9036617279052734,-1.3036277294158936,0.6017165184020996
1747275457351902700,16.50090283203125,1.0156917572021484,-1.171217441558838,-0.4638032913208008
1747275457367946800,16.51694677734375,1.5737838745117188,-1.260241985321045,-0.8573317527770996
1747275457383970300,16.53297021484375,1.7581729888916016,-1.0715491771697998,-0.28191661834716797
1747275457399985200,16.548985107421874,1.8577723503112793,-0.5691394805908203,0.027523517608642578
1747275457416003300,16.56500341796875,1.4296574592590332,-1.1885552406311035,-0.3649134635925293
1747275457432040400,16.58104052734375,1.3911492824554443,-2.0072739124298096,-1.3148131370544434
1747275457448081400,16.597081298828126,2.3610081672668457,-1.948868989944458,-2.3436083793640137
1747275457464103000,16.61310302734375,3.4953880310058594,-0.9788846969604492,-1.6876945495605469
1747275457480140500,16.629140625,3.6675360202789307,-0.26735782623291016,-0.22733116149902344
1747275457496168000,16.64516796875,2.270855665206909,-0.671816349029541,0.8281035423278809
1747275457512245200,16.661245361328124,1.3378846645355225,-0.9046645164489746,1.6125059127807617
1747275457528269000,16.67726904296875,0.6678628921508789,-0.6465978622436523,1.546684741973877
1747275457544286200,16.6932861328125,1.7588131427764893,0.8707642555236816,1.7504925727844238
1747275457560322600,16.709322509765624,-0.2589888572692871,-0.3847198486328125,1.7449398040771484
1747275457576310000,16.72531005859375,0.14366841316223145,-1.397475242614746,2.5533652305603027
1747275457592368400,16.741368408203126,-1.1621341705322266,-0.3471808433532715,2.3140320777893066
1747275457608426200,16.75742626953125,-3.902060031890869,0.8861856460571289,2.3604722023010254
1747275457624444000,16.77344384765625,-6.069211959838867,0.5390615463256836,2.582271099090576
1747275457640438800,16.789438720703124,-5.207106590270996,0.9105105400085449,3.862112283706665
1747275457656468000,16.805468017578125,-0.9181810617446899,0.4886021614074707,2.9137561321258545
1747275457672508000,16.8215078125,0.6143301725387573,-0.3862900733947754,0.8100700378417969
1747275457688534300,16.8375341796875,1.5019938945770264,-1.010627269744873,-1.6171398162841797
1747275457704556300,16.853556396484375,0.8064543008804321,0.04612302780151367,-2.776102066040039
1747275457720594400,16.869594482421874,-0.0475924015045166,0.43018674850463867,-2.968167781829834
1747275457736585000,16.8855849609375,-0.9190380573272705,0.7222471237182617,-2.548616409301758
1747275457752564000,16.90156396484375,-0.8363486528396606,0.36737966537475586,-0.36769819259643555
1747275457768582100,16.91758203125,-1.010528802871704,-0.41620397567749023,0.9692962169647217
1747275457784602400,16.933602294921876,-0.5350143909454346,-0.8926815986633301,1.218888282775879
1747275457800599600,16.949599609375,0.033708810806274414,-0.3975710868835449,0.7291431427001953
1747275457816634000,16.965634033203123,0.5233161449432373,-0.2970914840698242,0.5521388053894043
1747275457832653000,16.981653076171874,1.1924805641174316,-0.04668903350830078,1.0755012035369873
1747275457848679400,16.997679443359374,0.9191370010375977,0.025312423706054688,1.1637476682662964
1747275457864701400,17.013701416015625,0.375485897064209,-0.14858722686767578,0.46559929847717285
1747275457880698600,17.02969873046875,-0.8393187522888184,-0.2834615707397461,-0.23677492141723633
1747275457896691200,17.045691162109375,-1.7739481925964355,-0.43638181686401367,0.2023082971572876
1747275457912707300,17.061707275390624,-1.5555927753448486,-0.4838423728942871,0.885922908782959
1747275457928733000,17.07773291015625,-0.15824270248413086,-0.5895681381225586,0.7881824970245361
1747275457944754200,17.093754150390627,0.8100857734680176,-0.773859977722168,0.37484073638916016
1747275457960752600,17.109752685546876,0.8629655838012695,-0.550145149230957,-0.557669997215271
1747275457976739000,17.125739013671875,0.25846290588378906,0.19465160369873047,-1.1665688753128052
1747275457992763100,17.14176318359375,0.7160382270812988,-1.072378158569336,-0.5695434808731079
1747275458008795400,17.15779541015625,1.624995231628418,-0.36879968643188477,0.09981971979141235
1747275458024819200,17.173819091796876,1.1189827919006348,-0.4468998908996582,0.7119312882423401
1747275458040830500,17.18983056640625,0.8299193382263184,-0.6060118675231934,0.633034884929657
1747275458056822800,17.20582275390625,0.7939338684082031,-0.7728719711303711,1.7412890195846558
1747275458072878000,17.221878173828124,0.6433539390563965,-0.5373101234436035,2.662853479385376
1747275458088946000,17.23794580078125,0.8337597846984863,-0.1013636589050293,3.723327875137329
1747275458104971500,17.253971435546877,0.6755185127258301,-1.5471611022949219,3.442424774169922
1747275458120968700,17.26996875,0.422727108001709,-1.6530718803405762,2.0431969165802
1747275458136974300,17.285974365234374,0.4741201400756836,-0.8618168830871582,-0.045233532786369324
1747275458152993300,17.3019931640625,0.6257810592651367,-0.6668515205383301,-2.1099886894226074
1747275458169017000,17.31801708984375,0.9193258285522461,-0.8648538589477539,-1.7278739213943481
1747275458184993300,17.3339931640625,0.48187685012817383,-0.5823268890380859,0.6016297340393066
1747275458200986400,17.349986328125,-0.2256631851196289,-0.8426117897033691,1.5263705253601074
1747275458216981200,17.365981201171873,-0.8456921577453613,-1.2019028663635254,0.33660805225372314
1747275458232999200,17.381999267578124,-1.8999533653259277,-1.4660820960998535,-0.18403717875480652
1747275458249013200,17.39801318359375,29.759634017944336,2.330064296722412,0.011731788516044617
1747275458265037800,17.414037841796876,-9.179521560668945,0.6935315132141113,2.0109100341796875
1747275458281076700,17.43007666015625,8.277790069580078,-1.9775996208190918,-0.500275194644928
1747275458297066200,17.446066162109375,-3.708566665649414,0.03810596466064453,-0.198679581284523
1747275458313194000,17.462194091796874,-0.23249578475952148,-0.3551187515258789,0.3910178244113922
1747275458337199900,17.486199951171876,-0.7156543731689453,-0.2553138732910156,0.32199060916900635
1747275458353208000,17.5022080078125,1.6412348747253418,-0.37484216690063477,0.3028612732887268
1747275458369209600,17.518209716796875,-0.20762968063354492,-0.3397994041442871,0.2846226990222931
1747275458385234400,17.534234375,-0.10542774200439453,-0.2358856201171875,0.35868340730667114
1747275458401247000,17.5502470703125,0.7498536109924316,-0.203765869140625,0.18161606788635254
1747275458417277700,17.566277587890625,0.0066699981689453125,-0.9435162544250488,0.3430751860141754
1747275458433305000,17.58230517578125,-0.25074243545532227,-0.9098405838012695,0.5279717445373535
1747275458449325300,17.5983251953125,0.13666963577270508,-0.6331114768981934,0.0786558985710144
1747275458465349000,17.61434912109375,-0.09419679641723633,-1.0628323554992676,0.07235255837440491
1747275458481361700,17.630361572265624,0.9697914123535156,-0.9497146606445312,0.8996555805206299
1747275458497395200,17.646395263671874,-1.8675694465637207,-0.9242124557495117,-1.176727056503296
1747275458513427700,17.662427734375,1.3456230163574219,-0.8513813018798828,0.13446283340454102
1747275458529433600,17.67843359375,2.0224695205688477,-0.9623374938964844,1.7079577445983887
1747275458545462000,17.6944619140625,-1.7227206230163574,-1.478170394897461,-0.30194544792175293
1747275458561500400,17.71050048828125,3.911473274230957,-1.3169665336608887,-1.3126144409179688
1747275458577511000,17.726510986328126,2.241917610168457,-0.3447737693786621,1.6093370914459229
1747275458593572000,17.742572021484374,-3.733215808868408,-0.30730295181274414,-0.5291416645050049
1747275458609583000,17.7585830078125,-0.8349862098693848,0.7921042442321777,0.34865283966064453
1747275458625609500,17.774609375,5.39178466796875,2.4828944206237793,-0.00030862540006637573
1747275458641649400,17.7906494140625,0.4486722946166992,3.277195453643799,1.247557520866394
1747275458657658400,17.806658447265626,-1.6964759826660156,-0.10389184951782227,-0.0036379098892211914
1747275458673721600,17.8227216796875,-0.14619159698486328,-0.21371841430664062,0.4111754894256592
1747275458689729500,17.8387294921875,0.8428993225097656,-0.15372467041015625,0.08005071431398392
1747275458705758700,17.8547587890625,0.3038778305053711,-0.10463714599609375,0.1254587173461914
1747275458721756200,17.870756103515625,-0.3869190216064453,-0.14254140853881836,0.3619888424873352
1747275458737793000,17.88679296875,-0.023059844970703125,-0.07728385925292969,0.21488982439041138
1747275458753825500,17.902825439453125,0.22441959381103516,-0.12202835083007812,0.17204204201698303
1747275458769859800,17.91885986328125,0.13812828063964844,-0.17229318618774414,0.1937580406665802
1747275458785885400,17.934885498046874,0.070404052734375,-0.09941816329956055,-0.11817380785942078
1747275458801897700,17.950897705078123,0.054627418518066406,-0.41310691833496094,0.1834336370229721
1747275458817934600,17.9669345703125,0.03588581085205078,-0.15361452102661133,0.2668902277946472
1747275458833971500,17.982971435546876,0.1550731658935547,-0.04099416732788086,0.27710092067718506
1747275458849975000,17.99897509765625,0.11861515045166016,-0.10071945190429688,0.11423632502555847
1747275458865998800,18.014998779296874,-0.008696556091308594,-0.12711811065673828,0.13175663352012634
1747275458882015200,18.03101513671875,0.027779579162597656,-0.16549396514892578,0.32419586181640625
1747275458898049800,18.0470498046875,-0.06332969665527344,-0.08535289764404297,0.2360571324825287
1747275458914082300,18.063082275390624,-0.17375564575195312,-0.10544538497924805,0.10347221046686172
1747275458930125800,18.079125732421875,0.03581047058105469,-0.08091402053833008,0.1752311885356903
1747275458946154200,18.095154296875,0.6075267791748047,-0.03171396255493164,0.6542622447013855
1747275458962173200,18.111173095703126,0.3946113586425781,-0.06984949111938477,0.12997575104236603
1747275458978213400,18.12721337890625,0.10473155975341797,-0.07321310043334961,0.04466112703084946
1747275458994249700,18.143249755859376,0.11627769470214844,-0.0875234603881836,0.07598930597305298
1747275459010276900,18.15927685546875,-0.055808067321777344,-0.09828996658325195,0.05734846740961075
1747275459026308000,18.17530810546875,0.12168121337890625,-0.0923013687133789,0.031317807734012604
1747275459042328800,18.191328857421876,0.08140087127685547,-0.07691144943237305,0.05551014468073845
1747275459058395100,18.20739501953125,0.04355907440185547,-0.08315896987915039,0.12138532102108002
1747275459074426000,18.223426025390626,0.07018756866455078,-0.04601621627807617,0.10648542642593384
1747275459090483700,18.239483642578126,0.04379558563232422,-0.0369873046875,0.10113412141799927
1747275459106509600,18.255509521484374,0.039012908935546875,-0.08310317993164062,0.05744432657957077
1747275459122523600,18.271523681640623,0.056160926818847656,-0.0963592529296875,0.036437343806028366
1747275459138556700,18.287556640625,0.08518505096435547,-0.059162139892578125,0.042404137551784515
1747275459154592000,18.303592041015627,-0.05526256561279297,-0.06357526779174805,0.10270341485738754
1747275459170599000,18.319598876953126,-0.01587200164794922,-0.03255176544189453,0.10524740815162659
1747275459186625300,18.335625244140626,0.18131732940673828,-0.034656524658203125,0.07332666218280792
1747275459202635300,18.35163525390625,0.13013553619384766,-0.06659698486328125,0.05186287313699722
1747275459218673400,18.36767333984375,-0.031160354614257812,-0.01955890655517578,0.07640577852725983
1747275459234706400,18.38370654296875,-0.06816387176513672,-0.03679704666137695,0.06297872960567474
1747275459250721000,18.399720947265624,-0.01875019073486328,-0.07119131088256836,0.040661975741386414
1747275459266748000,18.415747802734376,0.11460018157958984,-0.03400135040283203,0.023177461698651314
1747275459282758700,18.431758544921873,0.08026790618896484,-0.027783870697021484,0.03657470643520355
1747275459298794000,18.4477939453125,-0.03293323516845703,-0.026598453521728516,0.06863967329263687
1747275459314824000,18.463823974609376,0.004619598388671875,0.00824594497680664,0.050487786531448364
1747275459330828300,18.479828369140623,0.049521446228027344,-0.031421661376953125,0.013402357697486877
1747275459346885600,18.4958857421875,0.001190185546875,-0.03781604766845703,0.019907208159565926
1747275459362901200,18.5119013671875,0.0032558441162109375,-0.025265216827392578,0.005091478116810322
1747275459378939400,18.527939453125,0.031554222106933594,-0.024503231048583984,0.03083791583776474
1747275459394972700,18.54397265625,0.011980056762695312,-0.014184951782226562,0.05888883024454117
1747275459410976500,18.5599765625,0.03557872772216797,-0.008791923522949219,0.058067865669727325
1747275459427006500,18.57600634765625,0.06869888305664062,-0.012877941131591797,0.02363061159849167
1747275459443024100,18.592024169921874,0.013155937194824219,-0.04795122146606445,0.02788841724395752
1747275459459058000,18.608057861328124,0.007905006408691406,-0.05192232131958008,0.020256459712982178
1747275459475091500,18.624091552734374,0.05777931213378906,-0.027266502380371094,0.01962094008922577
1747275459491099100,18.64009912109375,0.018993377685546875,-0.04557323455810547,0.0430830642580986
1747275459507128000,18.656128173828126,0.025762557983398438,-0.006537437438964844,0.061564914882183075
1747275459523145700,18.672145751953124,0.05653858184814453,0.03478193283081055,0.06561579555273056
1747275459539208200,18.688208251953125,0.010684013366699219,-0.014853477478027344,0.04106967896223068
1747275459555238000,18.70423779296875,0.000797271728515625,-0.026274681091308594,-0.002295855898410082
1747275459571251000,18.7202509765625,0.02448749542236328,-0.030617713928222656,0.004723521415144205
1747275459587277000,18.736277099609374,0.00031757354736328125,-0.025424957275390625,0.014140315353870392
1747275459603292400,18.75229248046875,0.012048721313476562,-0.025000572204589844,0.042517535388469696
1747275459619330300,18.768330322265626,0.04767608642578125,-0.01013040542602539,0.03471285477280617
1747275459635367700,18.78436767578125,0.02349567413330078,-0.004920482635498047,0.05331628769636154
1747275459651379000,18.80037890625,0.011260986328125,-0.009242534637451172,0.019276363775134087
1747275459667408000,18.816407958984374,0.034946441650390625,-0.023151874542236328,0.028468700125813484
1747275459683422000,18.832421875,-0.008419036865234375,-0.041828155517578125,0.009084931574761868
1747275459699462100,18.848462158203127,-0.0015125274658203125,-0.026975631713867188,0.023089785128831863
1747275459715497200,18.864497314453125,0.05566883087158203,0.014220714569091797,0.017849253490567207
1747275459731523000,18.880523193359377,0.029157638549804688,-0.014197826385498047,0.04621770605444908
1747275459747553500,18.896553466796874,0.03131103515625,-0.023350238800048828,0.053039077669382095
1747275459763570700,18.91257080078125,0.028612136840820312,-0.018019676208496094,0.02863280475139618
1747275459779610400,18.9286103515625,0.006751060485839844,-0.027040481567382812,0.026119505986571312
1747275459795648800,18.944648681640626,0.008825302124023438,-0.03126049041748047,0.004349427297711372
1747275459811657700,18.96065771484375,0.0301666259765625,-0.030895709991455078,0.01837853714823723
1747275459827722800,18.97672265625,0.03468132019042969,-0.006468296051025391,0.0348128117620945
1747275459843741000,18.992740966796877,0.017775535583496094,-0.006207466125488281,0.029767654836177826
1747275459859776500,19.008776611328123,0.022398948669433594,0.013238906860351562,0.0200369730591774
1747275459875811000,19.02481103515625,0.010257720947265625,-0.010403156280517578,0.02709989622235298
1747275459891831300,19.040831298828124,0.010033607482910156,-0.03394603729248047,0.012853343971073627
1747275459907861500,19.056861572265625,0.021852493286132812,-0.03606986999511719,0.015141163021326065
1747275459923881700,19.0728818359375,-0.0022535324096679688,-0.021413803100585938,-0.0018723697867244482
1747275459939920000,19.088919921875,0.016816139221191406,0.009861469268798828,0.02443096786737442
1747275459955956000,19.1049560546875,0.03344154357910156,0.026856422424316406,0.033872753381729126
1747275459971961600,19.120961669921876,0.018987655639648438,0.0006785392761230469,0.04075111448764801
1747275459987988200,19.13698828125,0.021198272705078125,-0.0013885498046875,0.01913096383213997
1747275460004001300,19.153001220703125,0.0019311904907226562,-0.015552043914794922,-0.009572423063218594
1747275460020068600,19.169068603515626,0.0018663406372070312,-0.015437602996826172,0.014373686164617538
1747275460036108300,19.1851083984375,0.011394500732421875,-0.0009856224060058594,0.026414398103952408
1747275460052137500,19.201137451171874,0.03528118133544922,-0.008069515228271484,0.01664864458143711
1747275460068164000,19.2171640625,0.025632858276367188,0.020786762237548828,0.014302666299045086
1747275460084178000,19.233177978515624,0.03751182556152344,0.0017971992492675781,0.023814735934138298
1747275460100214000,19.249214111328126,0.018312454223632812,-0.01727771759033203,0.023692863062024117
1747275460116243700,19.26524365234375,0.020578384399414062,-0.03620100021362305,0.002075637225061655
1747275460132248800,19.281248779296874,0.0228271484375,-0.019183635711669922,0.016445158049464226
1747275460148278000,19.297278076171875,0.010758399963378906,-0.011827468872070312,0.025959203019738197
1747275460164299000,19.313299072265625,0.02019977569580078,0.0003848075866699219,0.04262158274650574
1747275460180336600,19.329336669921876,0.03920555114746094,0.00782918930053711,0.025604616850614548
1747275460196372200,19.345372314453126,0.019967079162597656,0.0007987022399902344,0.02314399741590023
1747275460212397300,19.361397216796874,0.01745319366455078,-0.006171703338623047,0.006300707813352346
1747275460228427000,19.377427001953127,0.007808685302734375,-0.03238964080810547,0.003958090208470821
1747275460244440600,19.393440673828124,0.0005359649658203125,-0.025045394897460938,0.006306845229119062
1747275460260476700,19.4094765625,0.005200386047363281,-0.005669593811035156,0.018079262226819992
1747275460276510500,19.425510498046876,0.031426429748535156,0.013678550720214844,0.03450958803296089
