time,seconds_elapsed,z,y,x
1747275440918546400,0.06754638671875,-0.0006108652451075613,0,0.0012217304902151227
1747275440934578000,0.083577880859375,-0.0006108652451075613,0,0.0012217304902151227
1747275440950592300,0.09959228515625,-0.0006108652451075613,0,0.0012217304902151227
1747275440966611200,0.115611083984375,-0.0006108652451075613,0,0.0012217304902151227
1747275440982604800,0.131604736328125,-0.0006108652451075613,0,0.0012217304902151227
1747275440998677000,0.147677001953125,-0.0006108652451075613,0,0.0012217304902151227
1747275441014715100,0.163715087890625,-0.0006108652451075613,0,0.0012217304902151227
1747275441030732000,0.17973193359375,0.0006108652451075613,0,0.0012217304902151227
1747275441046778400,0.1957783203125,0,0,0
1747275441062800000,0.2117998046875,0,0.0012217304902151227,0.0012217304902151227
1747275441078862800,0.22786279296875,0,0.0012217304902151227,0.0024434609804302454
1747275441094897700,0.243897705078125,0,0.0006108652451075613,0
1747275441110915800,0.259915771484375,-0.001832595793530345,-0.0006108652451075613,-0.0006108652451075613
1747275441126922500,0.275922607421875,0.0006108652451075613,0.0006108652451075613,-0.0006108652451075613
1747275441142925000,0.291925048828125,-0.0006108652451075613,0,0
1747275441158950700,0.30795068359375,-0.0006108652451075613,0,0
1747275441174987000,0.323987060546875,-0.0012217304902151227,-0.0006108652451075613,0.0006108652451075613
1747275441191007700,0.3400078125,0,0,0
1747275441207055400,0.356055419921875,0,-0.0006108652451075613,-0.0012217304902151227
1747275441223051300,0.37205126953125,-0.0006108652451075613,0.0006108652451075613,0.0006108652451075613
1747275441239123200,0.388123291015625,0,-0.0006108652451075613,0.0012217304902151227
1747275441255191800,0.40419189453125,0,-0.0006108652451075613,-0.0006108652451075613
1747275441271212000,0.4202119140625,0.0012217304902151227,-0.0006108652451075613,-0.0012217304902151227
1747275441287252000,0.436251953125,0.0012217304902151227,-0.0006108652451075613,0
1747275441303254800,0.4522548828125,0.0006108652451075613,0,0
1747275441319312000,0.468311767578125,-0.0006108652451075613,0,0
1747275441335341300,0.48434130859375,-0.0006108652451075613,0.0012217304902151227,-0.0012217304902151227
1747275441351361000,0.500361083984375,0.001832595793530345,0.0012217304902151227,0.0012217304902151227
1747275441367368200,0.5163681640625,-0.0006108652451075613,0,0.0006108652451075613
1747275441383360500,0.532360595703125,0.0006108652451075613,0.0006108652451075613,0.0006108652451075613
1747275441399392800,0.548392822265625,0.0012217304902151227,-0.0012217304902151227,0
1747275441415431200,0.56443115234375,0.0012217304902151227,0.0006108652451075613,-0.0012217304902151227
1747275441431452200,0.5804521484375,0,0.0006108652451075613,0
1747275441447531000,0.596531005859375,0.0006108652451075613,0,0.001832595793530345
1747275441463539200,0.612539306640625,0.0012217304902151227,-0.0006108652451075613,0.0006108652451075613
1747275441479610000,0.628610107421875,0.0006108652451075613,0.0012217304902151227,-0.0012217304902151227
1747275441495648300,0.644648193359375,-0.0006108652451075613,-0.0006108652451075613,0.0006108652451075613
1747275441511670000,0.660669921875,0,-0.0006108652451075613,0
1747275441527718100,0.67671826171875,0.0006108652451075613,0,0
1747275441543736300,0.692736328125,0.0012217304902151227,0.0012217304902151227,-0.0006108652451075613
1747275441559805000,0.708804931640625,0.0006108652451075613,-0.0012217304902151227,0.0006108652451075613
1747275441575846000,0.724845947265625,0,0,-0.0012217304902151227
1747275441591866400,0.740866455078125,0.0012217304902151227,0,-0.0006108652451075613
1747275441607873000,0.756873046875,0.0012217304902151227,0,-0.001832595793530345
1747275441623884800,0.772884765625,0.001832595793530345,0,0.0012217304902151227
1747275441639975000,0.788974853515625,0.0012217304902151227,0.0006108652451075613,-0.0012217304902151227
1747275441656011000,0.805010986328125,0,-0.0006108652451075613,-0.001832595793530345
1747275441672030500,0.821030517578125,0.0006108652451075613,-0.0006108652451075613,-0.001832595793530345
1747275441688075000,0.837074951171875,0.0006108652451075613,0.0012217304902151227,-0.0012217304902151227
1747275441704066600,0.853066650390625,-0.0006108652451075613,0,0
1747275441720135400,0.869135498046875,-0.0006108652451075613,0.0006108652451075613,0.001832595793530345
1747275441736186000,0.88518603515625,0.0012217304902151227,-0.0006108652451075613,0
1747275441752208000,0.901207763671875,0,-0.0006108652451075613,-0.0006108652451075613
1747275441768256800,0.9172568359375,0.0012217304902151227,0,-0.0024434609804302454
1747275441784273400,0.9332734375,-0.0006108652451075613,0.0006108652451075613,0
1747275441800340200,0.94934033203125,0.0006108652451075613,-0.0012217304902151227,-0.001832595793530345
1747275441816380000,0.9653798828125,0.0006108652451075613,0.0006108652451075613,0.0006108652451075613
1747275441832401200,0.981401123046875,-0.0006108652451075613,0.0006108652451075613,-0.0012217304902151227
1747275441848405200,0.9974052734375,-0.0006108652451075613,0.0012217304902151227,-0.0012217304902151227
1747275441864399600,1.013399658203125,0.0006108652451075613,0.0006108652451075613,-0.001832595793530345
1747275441880427500,1.029427490234375,0.0006108652451075613,0.0006108652451075613,-0.0006108652451075613
1747275441896466400,1.045466552734375,0.0006108652451075613,-0.001832595793530345,-0.001832595793530345
1747275441912488700,1.06148876953125,0,0.0006108652451075613,0.0006108652451075613
1747275441928561000,1.077560791015625,0.0006108652451075613,0,-0.0006108652451075613
1747275441944573700,1.09357373046875,0.0012217304902151227,0,0
1747275441960644400,1.109644287109375,0.0012217304902151227,-0.0006108652451075613,-0.0012217304902151227
1747275441976682500,1.1256826171875,0.0012217304902151227,0.0006108652451075613,-0.0012217304902151227
1747275441992704000,1.1417041015625,-0.0012217304902151227,-0.0006108652451075613,-0.0006108652451075613
1747275442008761300,1.15776123046875,0,0.0006108652451075613,-0.0006108652451075613
1747275442024803300,1.17380322265625,-0.0006108652451075613,0.0006108652451075613,-0.0006108652451075613
1747275442040871200,1.18987109375,0.0012217304902151227,0,0
1747275442056911400,1.205911376953125,0,0,-0.0012217304902151227
1747275442072926200,1.22192626953125,-0.0006108652451075613,0,-0.0012217304902151227
1747275442088927000,1.237927001953125,-0.0006108652451075613,-0.0006108652451075613,-0.001832595793530345
1747275442104944000,1.253944091796875,0,-0.0006108652451075613,-0.0012217304902151227
1747275442120971800,1.2699716796875,0,-0.0006108652451075613,-0.0006108652451075613
1747275442137011500,1.286011474609375,0.0006108652451075613,-0.0006108652451075613,0.0006108652451075613
1747275442153027600,1.302027587890625,0.0006108652451075613,0.0012217304902151227,-0.0006108652451075613
1747275442169069800,1.31806982421875,0.0012217304902151227,-0.0012217304902151227,-0.0006108652451075613
1747275442185064200,1.334064208984375,-0.0012217304902151227,0.0006108652451075613,0
1747275442201134800,1.350134765625,0,0.001832595793530345,-0.0012217304902151227
1747275442217213200,1.366213134765625,0.0012217304902151227,0,-0.001832595793530345
1747275442233235200,1.382235107421875,-0.0012217304902151227,0.0012217304902151227,-0.00366519158706069
1747275442249286700,1.39828662109375,-0.0012217304902151227,0.001832595793530345,-0.0024434609804302454
1747275442265313500,1.4143134765625,0.0006108652451075613,0.0006108652451075613,-0.004886921960860491
1747275442281379600,1.430379638671875,0.0012217304902151227,0,-0.00427605677396059
1747275442297418500,1.44641845703125,-0.0006108652451075613,0,-0.003054326167330146
1747275442313436200,1.462436279296875,0.0006108652451075613,0.0012217304902151227,-0.001832595793530345
1747275442329441300,1.478441162109375,-0.0006108652451075613,-0.0006108652451075613,-0.0006108652451075613
1747275442345435000,1.494434814453125,0.001832595793530345,-0.0006108652451075613,0.001832595793530345
1747275442361456000,1.5104560546875,0.0012217304902151227,-0.0006108652451075613,0.0006108652451075613
1747275442377493000,1.526492919921875,0.0006108652451075613,0,0.0012217304902151227
1747275442393519600,1.54251953125,0,0.0024434609804302454,0.0006108652451075613
1747275442409583600,1.55858349609375,0.001832595793530345,0,-0.0006108652451075613
1747275442425607000,1.57460693359375,0.0012217304902151227,0.0006108652451075613,-0.0006108652451075613
1747275442441678300,1.59067822265625,0.0006108652451075613,-0.0006108652451075613,0.0006108652451075613
1747275442457719600,1.606719482421875,0,-0.0006108652451075613,0.0012217304902151227
1747275442473744400,1.622744384765625,0.0006108652451075613,0.0006108652451075613,0.0006108652451075613
1747275442489794800,1.638794921875,-0.0006108652451075613,-0.001832595793530345,0.0012217304902151227
1747275442505799400,1.65479931640625,0,-0.0012217304902151227,0
1747275442521872000,1.670871826171875,-0.0006108652451075613,0.0006108652451075613,-0.0006108652451075613
1747275442537915400,1.686915283203125,0.001832595793530345,0,-0.0006108652451075613
1747275442553938400,1.7029384765625,-0.0012217304902151227,0,0.0006108652451075613
1747275442569986600,1.718986572265625,0.0006108652451075613,0.0006108652451075613,0.0012217304902151227
1747275442586019600,1.73501953125,0,-0.0006108652451075613,0.0006108652451075613
1747275442602052000,1.751052001953125,0.0006108652451075613,0,0
1747275442618095000,1.76709521484375,-0.0012217304902151227,0,0
1747275442634119200,1.783119140625,0.0012217304902151227,0.0006108652451075613,-0.0012217304902151227
1747275442650189600,1.799189453125,0.0006108652451075613,0,0
1747275442666184700,1.815184814453125,0.0006108652451075613,0,-0.0006108652451075613
1747275442682251500,1.83125146484375,0.0012217304902151227,0,0
1747275442698289000,1.847288818359375,0.0006108652451075613,0.001832595793530345,0.001832595793530345
1747275442714311200,1.863311279296875,0.0006108652451075613,0.0006108652451075613,0.0012217304902151227
1747275442730364700,1.87936474609375,0.001832595793530345,0.0006108652451075613,0.0006108652451075613
1747275442746453500,1.89545361328125,0,0,-0.0012217304902151227
1747275442762523000,1.91152294921875,0.0006108652451075613,0.001832595793530345,0
1747275442778567400,1.9275673828125,-0.0006108652451075613,0.0006108652451075613,0.0006108652451075613
1747275442794592000,1.943592041015625,0.0012217304902151227,-0.0012217304902151227,-0.0012217304902151227
1747275442810601700,1.959601806640625,0.0012217304902151227,0,0.0006108652451075613
1747275442826597600,1.97559765625,-0.0006108652451075613,0.0006108652451075613,0.0006108652451075613
1747275442842631200,1.991631103515625,0.0006108652451075613,-0.0006108652451075613,-0.0006108652451075613
1747275442858672600,2.007672607421875,0,-0.0006108652451075613,0.001832595793530345
1747275442874697700,2.02369775390625,0.0006108652451075613,-0.0006108652451075613,0.0006108652451075613
1747275442890746400,2.039746337890625,0.0006108652451075613,0.0012217304902151227,0.0006108652451075613
1747275442906734300,2.055734375,0.0006108652451075613,0,0.0012217304902151227
1747275442922804700,2.0718046875,-0.0006108652451075613,0.0012217304902151227,0
1747275442938846700,2.0878466796875,0,0.0006108652451075613,-0.0012217304902151227
1747275442954869500,2.103869384765625,0.0012217304902151227,-0.0006108652451075613,0.0006108652451075613
1747275442970939100,2.119939208984375,-0.0006108652451075613,0.0012217304902151227,0
1747275442986936000,2.13593603515625,0.0006108652451075613,0.0006108652451075613,-0.0012217304902151227
1747275443003009000,2.152009033203125,-0.0012217304902151227,0.0006108652451075613,0.001832595793530345
1747275443019053800,2.1680537109375,0,-0.0006108652451075613,0.0012217304902151227
1747275443035075600,2.18407568359375,0.0012217304902151227,0,-0.0006108652451075613
1747275443051086000,2.200086181640625,0.0012217304902151227,0.0012217304902151227,0.0012217304902151227
1747275443067079700,2.21607958984375,0.0006108652451075613,0.0006108652451075613,0.0012217304902151227
1747275443083109400,2.232109375,0.0012217304902151227,-0.0006108652451075613,-0.0006108652451075613
1747275443099151000,2.248151123046875,0.0012217304902151227,-0.0012217304902151227,0.001832595793530345
1747275443115175200,2.264175048828125,0.0006108652451075613,-0.0006108652451075613,0
1747275443131273200,2.280273193359375,0,0.0012217304902151227,0.0006108652451075613
1747275443147270400,2.2962705078125,0.001832595793530345,-0.001832595793530345,0.0012217304902151227
1747275443163340500,2.312340576171875,0.0012217304902151227,0,-0.0006108652451075613
1747275443179381500,2.328381591796875,0.0006108652451075613,0,-0.001832595793530345
1747275443195407000,2.344406982421875,0,0.0006108652451075613,0
1747275443211458800,2.360458740234375,0,0.0012217304902151227,0.0006108652451075613
1747275443227460600,2.376460693359375,-0.001832595793530345,-0.0006108652451075613,0
1747275443243535000,2.39253515625,-0.0006108652451075613,0,0.0024434609804302454
1747275443259582000,2.40858203125,-0.0024434609804302454,-0.0012217304902151227,0.0012217304902151227
1747275443275607300,2.424607177734375,-0.0006108652451075613,0.0006108652451075613,-0.0006108652451075613
1747275443291616300,2.4406162109375,0.0006108652451075613,0,0
1747275443307612000,2.45661181640625,0.0006108652451075613,0.0006108652451075613,-0.0006108652451075613
1747275443323646500,2.472646484375,0.0012217304902151227,-0.0006108652451075613,0
1747275443339693800,2.48869384765625,-0.0012217304902151227,0.0012217304902151227,0.0012217304902151227
1747275443355718400,2.504718505859375,0.0012217304902151227,0,-0.0006108652451075613
1747275443371767300,2.520767333984375,0.0012217304902151227,-0.0012217304902151227,-0.0012217304902151227
1747275443387759600,2.536759521484375,0,-0.0012217304902151227,-0.0006108652451075613
1747275443403832800,2.552832763671875,0.0012217304902151227,0.0006108652451075613,0
1747275443419873500,2.56887353515625,0,-0.0012217304902151227,-0.0006108652451075613
1747275443435895800,2.584895751953125,0.0006108652451075613,-0.0012217304902151227,0
1747275443451944200,2.600944091796875,0.0006108652451075613,-0.0006108652451075613,0.0024434609804302454
1747275443467942000,2.61694189453125,0.0006108652451075613,0.0006108652451075613,0.0006108652451075613
1747275443484015000,2.63301513671875,-0.0006108652451075613,-0.0006108652451075613,-0.0006108652451075613
1747275443500057900,2.649057861328125,0.001832595793530345,0.0006108652451075613,0.0006108652451075613
1747275443516083200,2.665083251953125,0,0,0.0006108652451075613
1747275443532093200,2.68109326171875,0,0,-0.0006108652451075613
1747275443548096800,2.6970966796875,0,0.0006108652451075613,0.0024434609804302454
1747275443564128000,2.7131279296875,0,0.0006108652451075613,0.0024434609804302454
1747275443580168700,2.729168701171875,0,0.0006108652451075613,0.0012217304902151227
1747275443596190500,2.7451904296875,0.0012217304902151227,0.0006108652451075613,0
1747275443612241000,2.761240966796875,-0.0012217304902151227,-0.0012217304902151227,0.0006108652451075613
1747275443628236300,2.777236328125,0.0006108652451075613,0.0006108652451075613,0
1747275443644312300,2.793312255859375,0,-0.0006108652451075613,-0.0012217304902151227
1747275443660355600,2.80935546875,0,-0.0006108652451075613,-0.0006108652451075613
1747275443676383500,2.825383544921875,0,0,0.0006108652451075613
1747275443692433700,2.84143359375,0.0006108652451075613,-0.0012217304902151227,-0.0006108652451075613
1747275443708469000,2.857468994140625,0.0024434609804302454,0,0.0006108652451075613
1747275443724543000,2.87354296875,0,-0.0006108652451075613,0.0012217304902151227
1747275443740588300,2.88958837890625,0,0,-0.0006108652451075613
1747275443756615000,2.905614990234375,-0.0006108652451075613,0,0
1747275443772626200,2.921626220703125,0.0012217304902151227,-0.0012217304902151227,0.0006108652451075613
1747275443788624000,2.937623779296875,0.0006108652451075613,-0.0006108652451075613,-0.0006108652451075613
1747275443804655600,2.953655517578125,0,0.001832595793530345,-0.0006108652451075613
1747275443820698400,2.969698486328125,0.0024434609804302454,0,-0.0006108652451075613
1747275443836723200,2.98572314453125,0.0006108652451075613,-0.0006108652451075613,0
1747275443852773000,3.001773193359375,0,-0.0006108652451075613,-0.0006108652451075613
1747275443868783400,3.017783447265625,0,0.0006108652451075613,-0.0012217304902151227
1747275443884860400,3.0338603515625,0.0012217304902151227,0.0006108652451075613,0.0006108652451075613
1747275443900902400,3.04990234375,0.0012217304902151227,0,0.0012217304902151227
1747275443916929800,3.0659296875,0.0006108652451075613,0.001832595793530345,0.0006108652451075613
1747275443932982000,3.08198193359375,-0.0006108652451075613,0.0006108652451075613,0
1747275443948980000,3.09797998046875,0.0012217304902151227,0,-0.0006108652451075613
1747275443965053000,3.114052978515625,0,-0.0006108652451075613,0
1747275443981094000,3.130093994140625,0.0006108652451075613,0,-0.0006108652451075613
1747275443997118700,3.14611865234375,-0.0006108652451075613,0.0006108652451075613,0
1747275444013138700,3.162138671875,0.001832595793530345,0,0.0024434609804302454
1747275444029152300,3.17815234375,0.0006108652451075613,0,0.0012217304902151227
1747275444045184300,3.194184326171875,0.0006108652451075613,0.0006108652451075613,0
1747275444061227800,3.210227783203125,0,0.0006108652451075613,-0.0006108652451075613
1747275444077252400,3.22625244140625,0,0.0006108652451075613,0
1747275444093340400,3.24234033203125,0.0006108652451075613,0,0.0006108652451075613
1747275444109335000,3.2583349609375,0,0.0006108652451075613,0.0012217304902151227
1747275444125407500,3.274407470703125,-0.0012217304902151227,-0.0006108652451075613,0.0006108652451075613
1747275444141449500,3.290449462890625,-0.0024434609804302454,-0.001832595793530345,0.0006108652451075613
1747275444157474600,3.306474609375,0,0,0.0006108652451075613
1747275444173528300,3.3225283203125,0,0,0.0006108652451075613
1747275444189545000,3.338544921875,0,0,-0.0006108652451075613
1747275444205616400,3.354616455078125,0.0006108652451075613,0,0.001832595793530345
1747275444221656800,3.37065673828125,-0.0006108652451075613,0.0006108652451075613,0.0012217304902151227
1747275444237678800,3.386678955078125,0,-0.0012217304902151227,0.0006108652451075613
1747275444253684700,3.402684814453125,0.0024434609804302454,0.0012217304902151227,0.0006108652451075613
1747275444269677000,3.418677001953125,0.0006108652451075613,-0.0006108652451075613,-0.0012217304902151227
1747275444285708500,3.43470849609375,0.0012217304902151227,0.0006108652451075613,-0.001832595793530345
1747275444301751600,3.45075146484375,0,0.0012217304902151227,-0.0012217304902151227
1747275444317794600,3.466794677734375,0.0006108652451075613,0.0006108652451075613,0.0012217304902151227
1747275444333839600,3.482839599609375,0.0012217304902151227,0.0006108652451075613,0.001832595793530345
1747275444349862400,3.4988623046875,-0.0012217304902151227,0.0006108652451075613,0.0012217304902151227
1747275444365934000,3.51493408203125,0,-0.0012217304902151227,0.0006108652451075613
1747275444382005000,3.5310048828125,-0.0006108652451075613,-0.0012217304902151227,-0.001832595793530345
1747275444398028800,3.54702880859375,0.0012217304902151227,0,-0.0012217304902151227
1747275444414079500,3.56307958984375,0.0012217304902151227,0.0006108652451075613,-0.001832595793530345
1747275444430076700,3.57907666015625,0,0.0012217304902151227,0.005497787147760391
1747275444446147800,3.59514794921875,0,0.0012217304902151227,0.0006108652451075613
1747275444462188500,3.6111884765625,-0.0006108652451075613,0.0012217304902151227,-0.0024434609804302454
1747275444478215000,3.62721484375,-0.0012217304902151227,0,0
1747275444494224400,3.643224365234375,-0.0006108652451075613,0,0.0006108652451075613
1747275444510244000,3.659244140625,-0.0006108652451075613,0.0006108652451075613,-0.003054326167330146
1747275444526275000,3.675275146484375,-0.0012217304902151227,-0.0006108652451075613,-0.001832595793530345
1747275444542316300,3.69131640625,0,0.0006108652451075613,0.0006108652451075613
1747275444558340600,3.707340576171875,0,0,0
1747275444574391000,3.72339111328125,0,0.0006108652451075613,0.001832595793530345
1747275444590387500,3.739387451171875,-0.0006108652451075613,-0.0006108652451075613,0
1747275444606460000,3.7554599609375,0.0006108652451075613,-0.0006108652451075613,-0.001832595793530345
1747275444622500600,3.77150048828125,0,0,-0.003054326167330146
1747275444638524000,3.78752392578125,0.0006108652451075613,0,-0.0012217304902151227
1747275444654568400,3.803568359375,0,0,0.0012217304902151227
1747275444670603000,3.81960302734375,0,0.0006108652451075613,0.0006108652451075613
1747275444686673200,3.835673095703125,0,-0.0006108652451075613,0.001832595793530345
1747275444702712000,3.851712158203125,0.0006108652451075613,-0.0006108652451075613,-0.0006108652451075613
1747275444718732300,3.867732177734375,0,-0.0006108652451075613,-0.001832595793530345
1747275444734780000,3.88377978515625,-0.0006108652451075613,-0.0006108652451075613,-0.0024434609804302454
1747275444750774500,3.8997744140625,0.0006108652451075613,-0.0006108652451075613,-0.0006108652451075613
1747275444766804200,3.91580419921875,-0.0006108652451075613,0.0006108652451075613,-0.0006108652451075613
1747275444782842600,3.931842529296875,0,0.0006108652451075613,0.0006108652451075613
1747275444798864600,3.94786474609375,-0.0012217304902151227,0.0006108652451075613,0.001832595793530345
1747275444814873000,3.963873046875,0,0.0006108652451075613,0
1747275444830909200,3.9799091796875,0.0012217304902151227,0,-0.0012217304902151227
1747275444846984700,3.995984619140625,-0.0006108652451075613,0,-0.0012217304902151227
1747275444863060000,4.01206005859375,-0.0006108652451075613,-0.0006108652451075613,-0.0006108652451075613
1747275444879086600,4.028086669921875,0,-0.001832595793530345,0.0024434609804302454
1747275444895140900,4.044140869140625,-0.0006108652451075613,0,0.001832595793530345
1747275444911135200,4.06013525390625,0.0012217304902151227,0.0012217304902151227,0.001832595793530345
1747275444927204600,4.07620458984375,0.001832595793530345,0,0.0006108652451075613
1747275444943247000,4.0922470703125,0.0024434609804302454,0,-0.0012217304902151227
1747275444959273000,4.10827294921875,0.0006108652451075613,-0.0012217304902151227,0
1747275444975281200,4.12428125,0.0006108652451075613,-0.0012217304902151227,0
1747275444991319300,4.1403193359375,-0.0006108652451075613,-0.0006108652451075613,0.0006108652451075613
1747275445007355600,4.156355712890625,0.001832595793530345,0.0012217304902151227,0.0012217304902151227
1747275445023419000,4.1724189453125,0,-0.0006108652451075613,0.0006108652451075613
1747275445039436300,4.188436279296875,0,0,0.0012217304902151227
1747275445055535000,4.20453515625,0.0006108652451075613,0.0006108652451075613,-0.0012217304902151227
1747275445071531300,4.22053125,0.0006108652451075613,0.0006108652451075613,-0.0006108652451075613
1747275445087603500,4.236603515625,0.0012217304902151227,-0.0006108652451075613,0
1747275445103644700,4.252644775390625,0.001832595793530345,0,0.0006108652451075613
1747275445119667700,4.268667724609375,0.0006108652451075613,0.0006108652451075613,0.0012217304902151227
1747275445135715300,4.28471533203125,-0.0006108652451075613,0.0006108652451075613,0.0012217304902151227
1747275445151774200,4.300774169921875,0.0006108652451075613,-0.001832595793530345,-0.0006108652451075613
1747275445167843000,4.316843017578125,-0.0006108652451075613,0.0012217304902151227,0
1747275445183883800,4.3328837890625,0.0012217304902151227,-0.0012217304902151227,-0.0012217304902151227
1747275445199908000,4.348908203125,-0.0012217304902151227,0,0.0006108652451075613
1747275445215919600,4.364919677734375,0,0.0006108652451075613,0.0006108652451075613
1747275445231918600,4.380918701171875,0.0006108652451075613,-0.0006108652451075613,0.0012217304902151227
1747275445247951000,4.396951171875,0,-0.0006108652451075613,0.0006108652451075613
1747275445263996400,4.412996337890625,0,0,0
1747275445280024600,4.429024658203125,0.001832595793530345,0,-0.0006108652451075613
1747275445296078300,4.445078369140625,0,0,-0.0012217304902151227
1747275445312075300,4.4610751953125,0.001832595793530345,-0.0006108652451075613,0
1747275445328147700,4.477147705078125,0.001832595793530345,0,0.0012217304902151227
1747275445344207000,4.49320703125,0.0006108652451075613,-0.0006108652451075613,0.001832595793530345
1747275445360233700,4.509233642578125,0,0.0006108652451075613,0.001832595793530345
1747275445376286200,4.5252861328125,0,0,-0.0012217304902151227
1747275445392279800,4.54127978515625,0.0006108652451075613,-0.0006108652451075613,-0.001832595793530345
1747275445408351500,4.5573515625,0,0.0006108652451075613,0
1747275445424394200,4.573394287109375,0,-0.0006108652451075613,0
1747275445440416800,4.589416748046875,0.0006108652451075613,0.0012217304902151227,0.0012217304902151227
1747275445456420400,4.60542041015625,0.001832595793530345,0.001832595793530345,0.001832595793530345
1747275445472417300,4.621417236328125,0.0012217304902151227,0.0006108652451075613,0.0006108652451075613
1747275445488447700,4.63744775390625,0,0,-0.0006108652451075613
1747275445504489500,4.653489501953125,0.0006108652451075613,-0.0012217304902151227,-0.001832595793530345
1747275445520512000,4.669511962890625,-0.0006108652451075613,0,0
1747275445536558600,4.68555859375,0,-0.0012217304902151227,0.0012217304902151227
1747275445552555300,4.70155517578125,0,-0.0024434609804302454,0.0012217304902151227
1747275445568627200,4.717627197265625,-0.0012217304902151227,0.0006108652451075613,0.0006108652451075613
1747275445584665600,4.73366552734375,-0.0006108652451075613,-0.0012217304902151227,0
1747275445600689200,4.749689208984375,0,-0.0006108652451075613,-0.0012217304902151227
1747275445616743200,4.7657431640625,0,-0.0012217304902151227,-0.0006108652451075613
1747275445632758800,4.7817587890625,-0.0012217304902151227,0.0012217304902151227,-0.0012217304902151227
1747275445648853000,4.79785302734375,0.0012217304902151227,0.0006108652451075613,-0.0006108652451075613
1747275445664897500,4.8138974609375,0,-0.0006108652451075613,0.0012217304902151227
1747275445680927500,4.829927490234375,-0.0012217304902151227,-0.0006108652451075613,0.0006108652451075613
1747275445696943900,4.84594384765625,0.0006108652451075613,0,0.0006108652451075613
1747275445712945700,4.861945556640625,0.001832595793530345,0.0006108652451075613,-0.001832595793530345
1747275445728986600,4.877986572265625,0.0012217304902151227,0.0012217304902151227,0
1747275445745031400,4.894031494140625,0,0.0006108652451075613,-0.001832595793530345
1747275445761058600,4.91005859375,-0.0006108652451075613,0.0012217304902151227,0.001832595793530345
1747275445777114000,4.926114013671875,0,-0.0006108652451075613,0.0012217304902151227
1747275445793121000,4.94212109375,0.0006108652451075613,0.0012217304902151227,-0.0006108652451075613
1747275445809195500,4.958195556640625,-0.0006108652451075613,0.0006108652451075613,0.0006108652451075613
1747275445825245000,4.974244873046875,0,0.0012217304902151227,-0.0006108652451075613
1747275445841269200,4.990269287109375,0.0006108652451075613,0.0012217304902151227,-0.0006108652451075613
1747275445857315600,5.006315673828125,0.0006108652451075613,-0.0006108652451075613,0
1747275445873308700,5.02230859375,0.0012217304902151227,0.0012217304902151227,-0.0006108652451075613
1747275445889370000,5.0383701171875,0.001832595793530345,0.0012217304902151227,0.0012217304902151227
1747275445905405200,5.0544052734375,-0.0006108652451075613,0.0006108652451075613,0.0006108652451075613
1747275445921435100,5.07043505859375,0.0012217304902151227,0,-0.0006108652451075613
1747275445937435000,5.086434814453125,0.0006108652451075613,0.0024434609804302454,-0.0006108652451075613
1747275445953434400,5.102434326171875,-0.0006108652451075613,0,-0.0012217304902151227
1747275445969466400,5.11846630859375,0.0006108652451075613,0,-0.0012217304902151227
1747275445985508900,5.1345087890625,-0.0006108652451075613,0,0
1747275446001532400,5.150532470703125,0,0.0012217304902151227,0
1747275446017624000,5.1666240234375,0.001832595793530345,0.0012217304902151227,0
1747275446033621800,5.182621826171875,0.0006108652451075613,-0.0006108652451075613,-0.0006108652451075613
1747275446049696500,5.198696533203125,-0.0006108652451075613,0.0006108652451075613,-0.0012217304902151227
1747275446065739500,5.214739501953125,0.0006108652451075613,0.0006108652451075613,-0.0012217304902151227
1747275446081766000,5.230765869140625,0,0.0012217304902151227,-0.001832595793530345
1747275446097820200,5.246820068359375,0.0012217304902151227,0.0012217304902151227,0.0012217304902151227
1747275446113854500,5.2628544921875,-0.0006108652451075613,0.0006108652451075613,0.0006108652451075613
1747275446129929700,5.2789296875,-0.0012217304902151227,0.001832595793530345,-0.0012217304902151227
1747275446145975000,5.29497509765625,0,0.0012217304902151227,-0.0006108652451075613
1747275446162001700,5.311001708984375,-0.0006108652451075613,0.0012217304902151227,-0.0012217304902151227
1747275446178014500,5.327014404296875,0.0012217304902151227,0.0012217304902151227,-0.0012217304902151227
1747275446194016500,5.3430166015625,0.0012217304902151227,0.001832595793530345,-0.0006108652451075613
1747275446210046500,5.35904638671875,-0.0006108652451075613,0.0006108652451075613,0.0006108652451075613
1747275446226089000,5.3750888671875,0,0.0012217304902151227,0
1747275446242114600,5.391114501953125,-0.0006108652451075613,0.0006108652451075613,0
1747275446258165200,5.407165283203125,-0.0012217304902151227,0.0024434609804302454,-0.0006108652451075613
1747275446274175000,5.423175048828125,0,0.0012217304902151227,-0.0012217304902151227
1747275446290249200,5.439249267578125,0,0,0.0012217304902151227
1747275446306320100,5.455320068359375,0,0,-0.0006108652451075613
1747275446322350000,5.47135009765625,-0.0006108652451075613,0,0
1747275446338405000,5.487405029296875,-0.0006108652451075613,0.0012217304902151227,-0.0006108652451075613
1747275446354403300,5.5034033203125,0.0006108652451075613,0.001832595793530345,-0.0006108652451075613
1747275446370481200,5.519481201171875,0.0012217304902151227,0,-0.0012217304902151227
1747275446386530300,5.5355302734375,0,0.0006108652451075613,-0.0006108652451075613
1747275446402559200,5.551559326171875,0.0006108652451075613,0.0012217304902151227,0
1747275446418574000,5.567573974609375,0,0.0006108652451075613,0.001832595793530345
1747275446434597600,5.58359765625,0,0,0
1747275446450633700,5.5996337890625,0.0006108652451075613,0.0006108652451075613,0.0024434609804302454
1747275446466680000,5.61568017578125,-0.0012217304902151227,0.0012217304902151227,-0.0006108652451075613
1747275446482705700,5.63170556640625,0.0012217304902151227,0.001832595793530345,-0.0012217304902151227
1747275446498718000,5.647718017578125,0.0012217304902151227,0.0006108652451075613,-0.0012217304902151227
1747275446514715100,5.663715087890625,0.0012217304902151227,0.0006108652451075613,-0.0006108652451075613
1747275446530786800,5.679786865234375,0,0.0006108652451075613,-0.0006108652451075613
1747275446546842000,5.695842041015625,0,0.0012217304902151227,0.0006108652451075613
1747275446562864000,5.711864013671875,0.0006108652451075613,0,-0.0006108652451075613
1747275446578919400,5.72791943359375,0.0006108652451075613,0,0
1747275446594948600,5.743948486328125,-0.0006108652451075613,0,-0.0012217304902151227
1747275446611019800,5.760019775390625,0.0012217304902151227,0.0012217304902151227,-0.001832595793530345
1747275446627068000,5.77606787109375,0.0006108652451075613,0.0012217304902151227,-0.0006108652451075613
1747275446643096600,5.7920966796875,0.0006108652451075613,0.0006108652451075613,-0.0006108652451075613
1747275446659108400,5.8081083984375,0.0006108652451075613,0.0006108652451075613,-0.0006108652451075613
1747275446675107000,5.824107177734375,0.0006108652451075613,0.0006108652451075613,0
1747275446691142400,5.840142333984375,0.0006108652451075613,0,-0.0012217304902151227
1747275446707188000,5.85618798828125,-0.0006108652451075613,0,-0.0006108652451075613
1747275446723214300,5.87221435546875,0,-0.0006108652451075613,-0.001832595793530345
1747275446739265800,5.888265869140625,0,-0.0006108652451075613,-0.0012217304902151227
1747275446755281400,5.904281494140625,-0.0012217304902151227,0,-0.0012217304902151227
1747275446771355100,5.920355224609375,0.0012217304902151227,0,0.0006108652451075613
1747275446787394000,5.93639404296875,0.0006108652451075613,0.0024434609804302454,0
1747275446803413000,5.9524130859375,0.0012217304902151227,0.0006108652451075613,0
1747275446819460000,5.968460205078125,0,0.001832595793530345,0.0006108652451075613
1747275446835456000,5.9844560546875,-0.0006108652451075613,0.0006108652451075613,0
1747275446851527000,6.00052685546875,0.0012217304902151227,0.0006108652451075613,0
1747275446867568000,6.016568115234375,-0.0012217304902151227,0.0006108652451075613,0
1747275446883595800,6.032595703125,0.0006108652451075613,0.0006108652451075613,0
1747275446899609000,6.048609130859375,-0.001832595793530345,0.001832595793530345,0
1747275446915643100,6.06464306640625,0.0006108652451075613,0,0.001832595793530345
1747275446931679500,6.080679443359375,0,0,-0.0006108652451075613
1747275446947730400,6.09673046875,-0.0006108652451075613,0.0012217304902151227,-0.0006108652451075613
1747275446963755500,6.112755615234375,0,0,0.0012217304902151227
1747275446979820500,6.128820556640625,0,-0.0006108652451075613,-0.0012217304902151227
1747275446995818800,6.14481884765625,-0.0006108652451075613,0.0006108652451075613,-0.0006108652451075613
1747275447011891000,6.160890869140625,-0.001832595793530345,0,0
1747275447027970600,6.176970458984375,0.0012217304902151227,0,-0.0012217304902151227
1747275447043996400,6.192996337890625,0.0006108652451075613,0.0006108652451075613,-0.001832595793530345
1747275447060046800,6.209046875,0,0,0
1747275447076079000,6.2250791015625,0.0012217304902151227,0,0.0012217304902151227
1747275447092154400,6.241154296875,0.0006108652451075613,0.0012217304902151227,0.0012217304902151227
1747275447108201000,6.257200927734375,0,0,-0.0006108652451075613
1747275447124224300,6.273224365234375,-0.0006108652451075613,0.0006108652451075613,-0.001832595793530345
1747275447140232000,6.28923193359375,0.0006108652451075613,-0.0006108652451075613,-0.0024434609804302454
1747275447156231700,6.305231689453125,0.0006108652451075613,-0.0006108652451075613,-0.0012217304902151227
1747275447172266200,6.321266357421875,-0.0006108652451075613,0,0
1747275447188312600,6.3373125,0.0006108652451075613,0.0006108652451075613,0.001832595793530345
1747275447204337200,6.353337158203125,0,-0.0006108652451075613,0
1747275447220406000,6.369406005859375,0,0,-0.0006108652451075613
1747275447236440800,6.38544091796875,-0.0006108652451075613,0.0006108652451075613,-0.0006108652451075613
1747275447252517000,6.40151708984375,-0.0006108652451075613,0,-0.001832595793530345
1747275447268555300,6.41755517578125,0.0006108652451075613,0.0012217304902151227,-0.0012217304902151227
1747275447284578800,6.433578857421875,0.0006108652451075613,0.0012217304902151227,-0.0012217304902151227
1747275447300630800,6.449630859375,-0.0006108652451075613,0,-0.0012217304902151227
1747275447316639200,6.46563916015625,0,-0.0006108652451075613,0.0006108652451075613
1747275447332714800,6.48171484375,0,0.0006108652451075613,0.0006108652451075613
1747275447348759800,6.497759765625,0.0006108652451075613,0.0006108652451075613,-0.0006108652451075613
1747275447364784400,6.513784423828125,-0.0012217304902151227,0.0006108652451075613,-0.001832595793530345
1747275447380794400,6.52979443359375,0.0006108652451075613,0,-0.0012217304902151227
1747275447396830200,6.545830322265625,0,0.0006108652451075613,-0.0012217304902151227
1747275447412862500,6.561862548828125,0.001832595793530345,0.0006108652451075613,-0.0006108652451075613
1747275447428905200,6.5779052734375,-0.0006108652451075613,-0.0006108652451075613,0.0006108652451075613
1747275447444931300,6.593931396484375,0.0012217304902151227,0.001832595793530345,0.0006108652451075613
1747275447460983600,6.609983642578125,0,0,-0.0006108652451075613
1747275447476979200,6.625979248046875,0.0006108652451075613,0,-0.0012217304902151227
1747275447493049000,6.642049072265625,0.0006108652451075613,-0.0006108652451075613,-0.0024434609804302454
1747275447509111300,6.658111328125,-0.0012217304902151227,0.0006108652451075613,0.0006108652451075613
1747275447525138200,6.67413818359375,0,-0.0006108652451075613,-0.0006108652451075613
1747275447541192200,6.690192138671875,0,0,0.001832595793530345
1747275447557237500,6.706237548828125,-0.0006108652451075613,-0.0006108652451075613,-0.0006108652451075613
1747275447573307600,6.7223076171875,0.0006108652451075613,0,-0.0006108652451075613
1747275447589348900,6.738348876953125,-0.0012217304902151227,0,-0.0012217304902151227
1747275447605370400,6.754370361328125,0.0012217304902151227,0,-0.0012217304902151227
1747275447621380000,6.770380126953125,-0.0006108652451075613,0,-0.001832595793530345
1747275447637374700,6.786374755859375,0.0006108652451075613,0.0012217304902151227,-0.0006108652451075613
1747275447653406700,6.80240673828125,0,0.0006108652451075613,0.0006108652451075613
1747275447669447700,6.81844775390625,-0.0012217304902151227,-0.0006108652451075613,0.0006108652451075613
1747275447685472500,6.834472412109375,0,0,0.001832595793530345
1747275447701521000,6.85052099609375,0.0006108652451075613,0.0012217304902151227,-0.0012217304902151227
1747275447717511400,6.866511474609375,-0.0006108652451075613,-0.0012217304902151227,-0.0012217304902151227
1747275447733586000,6.8825859375,0,0.0006108652451075613,0
1747275447749626600,6.898626708984375,0,0.0012217304902151227,0.0006108652451075613
1747275447765651700,6.914651611328125,-0.0006108652451075613,-0.0006108652451075613,-0.0006108652451075613
1747275447781705200,6.930705322265625,0.0012217304902151227,0,-0.0012217304902151227
1747275447797702100,6.9467021484375,0,0.0012217304902151227,-0.0006108652451075613
1747275447813771800,6.962771728515625,0.0012217304902151227,0,-0.0006108652451075613
1747275447829816800,6.97881689453125,0.0006108652451075613,-0.0006108652451075613,-0.0006108652451075613
1747275447845842700,6.9948427734375,0.0006108652451075613,0.0006108652451075613,0
1747275447861854200,7.010854248046875,0,-0.0006108652451075613,0.0012217304902151227
1747275447877849900,7.026849853515625,0,0,0.001832595793530345
1747275447893881000,7.042881103515625,0,-0.0006108652451075613,0.001832595793530345
1747275447909923800,7.058923828125,0,0.0006108652451075613,0.0006108652451075613
1747275447925948000,7.074947998046875,0.0012217304902151227,0,-0.0012217304902151227
1747275447941998800,7.090998779296875,0.0006108652451075613,0.0006108652451075613,0
1747275447957999000,7.1069990234375,-0.001832595793530345,-0.0006108652451075613,-0.0012217304902151227
1747275447974074600,7.12307470703125,0.001832595793530345,-0.0012217304902151227,0.0006108652451075613
1747275447990117400,7.139117431640625,-0.0024434609804302454,0,-0.001832595793530345
1747275448006142500,7.155142578125,0,0.0012217304902151227,-0.001832595793530345
1747275448022204000,7.171203857421875,0.0012217304902151227,0,-0.001832595793530345
1747275448038204000,7.187203857421875,-0.0024434609804302454,0.0006108652451075613,-0.001832595793530345
1747275448054274000,7.203274169921875,0.0006108652451075613,-0.0006108652451075613,0.0006108652451075613
1747275448070325200,7.2193251953125,0.0006108652451075613,-0.0012217304902151227,0.0012217304902151227
1747275448086352600,7.2353525390625,0.0006108652451075613,0.0006108652451075613,0.001832595793530345
1747275448102357000,7.25135693359375,0.001832595793530345,-0.0012217304902151227,0.0006108652451075613
1747275448118356700,7.267356689453125,0.0006108652451075613,0.0006108652451075613,0
1747275448134383600,7.283383544921875,0,0,0
1747275448150419700,7.299419677734375,0,0,-0.0006108652451075613
1747275448166444500,7.315444580078125,0.01466076634824276,0.0024434609804302454,-0.001832595793530345
1747275448182539800,7.331539794921875,0.15760323405265808,0,0
1747275448198539500,7.34753955078125,0.4056145250797272,-0.007941247895359993,-0.0024434609804302454
1747275448214613200,7.36361328125,0.6188064813613892,0.001832595793530345,0.003054326167330146
1747275448230653000,7.37965283203125,0.3854559659957886,0.003054326167330146,0.0024434609804302454
1747275448246675200,7.39567529296875,0.11545353382825851,0.005497787147760391,-0.0024434609804302454
1747275448262725600,7.4117255859375,0.12767083942890167,0.0006108652451075613,-0.006719517521560192
1747275448278770000,7.42777001953125,0.08002334833145142,0.001832595793530345,-0.004886921960860491
1747275448294841300,7.44384130859375,-0.018936822190880775,0.030543262138962746,-0.00366519158706069
1747275448310883600,7.459883544921875,-0.030543262138962746,0.09224065393209457,-0.00427605677396059
1747275448326929700,7.4759296875,-0.03237585723400116,0.033597588539123535,-0.004886921960860491
1747275448342938000,7.491938232421875,-0.08674286305904388,-0.05619960278272629,-0.11178833991289139
1747275448358942500,7.5079423828125,-0.018325956538319588,-0.13072516024112701,-0.17470745742321014
1747275448374976500,7.5239765625,0.07452555745840073,-0.11178833991289139,-0.12767083942890167
1747275448391021300,7.540021240234375,0.006719517521560192,-0.04337143152952194,-0.07941248267889023
1747275448407046700,7.556046630859375,-0.056810468435287476,-0.028099801391363144,-0.1258382350206375
1747275448423095600,7.572095458984375,-0.11850785464048386,-0.02871066704392433,-0.16982053220272064
1747275448439090000,7.58808984375,-0.46792277693748474,-0.1111774742603302,-0.11239920556545258
1747275448455155000,7.604155029296875,-0.7049384713172913,-0.15882496535778046,-0.09834930300712585
1747275448471228000,7.620227783203125,-0.6261368989944458,-0.17104226350784302,-0.08796459436416626
1747275448487252700,7.636252685546875,-0.252287358045578,-0.1411098688840866,-0.08002334833145142
1747275448503297800,7.6522978515625,0.016493361443281174,-0.19914206862449646,-0.05497787147760391
1747275448519304700,7.6683046875,0.10018189996480942,1.018923282623291,0.15821409225463867
1747275448535369200,7.684369140625,-0.13439035415649414,1.1869112253189087,0.7831292152404785
1747275448551392300,7.700392333984375,-0.10690141469240189,0.12095131725072861,0.07696902006864548
1747275448567418600,7.716418701171875,-0.15027284622192383,-0.4331034719944,-0.3634648323059082
1747275448583412200,7.732412109375,-0.12767083942890167,-0.14294247329235077,-0.11667526513338089
1747275448599407900,7.748407958984375,0.0959058403968811,0.16859880089759827,0.04886921867728233
1747275448615427800,7.764427734375,0.7739662528038025,0.0354301854968071,-0.04398229718208313
1747275448631456300,7.780456298828125,1.378722906112671,-0.05925392732024193,-0.12767083942890167
1747275448647479800,7.796479736328125,1.6139060258865356,0.05742133408784866,-0.06352998316287994
1747275448663556600,7.812556640625,1.822821855545044,0.13377949595451355,-0.039095375686883926
1747275448679559200,7.82855908203125,1.9889771938323975,0.4648684561252594,-0.001832595793530345
1747275448695622700,7.84462255859375,1.9028452634811401,0.7709119319915771,-0.02871066704392433
1747275448711655400,7.860655517578125,1.4367550611495972,0.7519751191139221,-0.02626720629632473
1747275448727675600,7.876675537109375,1.289536476135254,0.5766568183898926,-0.12339477986097336
1747275448743717600,7.892717529296875,1.2919800281524658,0.6310238242149353,-0.1661553531885147
1747275448759714000,7.908714111328125,1.3377948999404907,0.7452555894851685,-0.20463985204696655
1747275448775773400,7.9247734375,1.389107584953308,0.616973876953125,-0.25595253705978394
1747275448791809000,7.94080908203125,1.6658295392990112,0.485027015209198,-0.2272418737411499
1747275448807834600,7.956834716796875,1.987755537033081,0.6444628238677979,-0.22113321721553802
1747275448823834000,7.972834228515625,2.172236919403076,1.141707181930542,-0.29138273000717163
1747275448839833900,7.988833740234375,2.41719388961792,1.728137731552124,-0.4349360466003418
1747275448855862300,8.0048623046875,2.6035077571868896,2.0060815811157227,-0.5448917746543884
1747275448871895600,8.0208955078125,2.219273328781128,2.1734585762023926,-0.5693264007568359
1747275448887919600,8.036919677734375,1.8112154006958008,1.8741345405578613,-0.4605923891067505
1747275448903964400,8.05296435546875,1.538158655166626,1.3231340646743774,-0.3335324227809906
1747275448919964000,8.0689638671875,1.4795156717300415,0.7422012686729431,-0.21807889640331268
1747275448936026600,8.085026611328125,1.5015068054199219,0.626747727394104,-0.1258382350206375
1747275448952084000,8.101083984375,1.3280210494995117,1.0433578491210938,0.04886921867728233
1747275448968108300,8.1171083984375,1.064738154411316,1.528384804725647,0.27061331272125244
1747275448984155100,8.133155029296875,0.7281513810157776,1.3823879957199097,-0.006108652334660292
1747275449000157700,8.14915771484375,0.5937610268592834,1.703092336654663,-0.35552358627319336
1747275449016217000,8.165217041015625,0.646295428276062,0.9999864101409912,-0.1417207419872284
1747275449032246800,8.181246826171876,0.4966334402561188,1.0030407905578613,-0.09040805697441101
1747275449048275200,8.197275146484374,0.20952677726745605,1.4660766124725342,0.019547687843441963
1747275449064271400,8.213271240234375,0.04214970022439957,1.7617353200912476,0.16065755486488342
1747275449080269300,8.229269287109375,-0.08307767659425735,1.7201964855194092,0.18997909128665924
1747275449096328700,8.24532861328125,-0.20586158335208893,1.1172724962234497,0.152105450630188
1747275449112356900,8.26135693359375,-0.304210901260376,0.39767327904701233,0.2535090744495392
1747275449128375600,8.27737548828125,-0.5662720799446106,-0.15271630883216858,0.4599815309047699
1747275449144459300,8.293459228515625,-0.7922922372817993,-0.4404338300228119,0.7531968355178833
1747275449160464600,8.309464599609376,-0.9437867999076843,-0.7024950385093689,1.2107349634170532
1747275449176526600,8.325526611328126,-0.9425650835037231,-1.238223910331726,1.5992451906204224
1747275449192547000,8.341547119140625,-0.8570439219474792,-1.3909401893615723,1.8857409954071045
1747275449208567000,8.357567138671875,-0.5528330206871033,-0.8069530129432678,1.6872098445892334
1747275449224617000,8.373616943359375,0.04886921867728233,-0.3243694305419922,1.3261884450912476
1747275449240608000,8.38960791015625,0.49846604466438293,-0.05925392732024193,0.8814785480499268
1747275449256666600,8.40566650390625,0.7055493593215942,0.031154127791523933,0.5326744914054871
1747275449272699400,8.421699462890626,0.7751879692077637,-0.2015855312347412,0.3219259977340698
1747275449288720000,8.437719970703125,1.0213667154312134,-0.8521569967269897,0.22052235901355743
1747275449304759300,8.45375927734375,1.3353514671325684,-1.4422528743743896,0.3121521472930908
1747275449320757200,8.46975732421875,1.4789047241210938,-1.654223084449768,0.6065891981124878
1747275449336777200,8.485777099609376,1.493565559387207,-1.6389514207839966,1.0366383790969849
1747275449352811800,8.501811767578126,1.5387696027755737,-1.0433578491210938,1.3280210494995117
1747275449368832800,8.517832763671874,1.7134770154953003,-0.294437050819397,1.5601497888565063
1747275449384869600,8.53386962890625,1.8099937438964844,0.3390302062034607,1.6206254959106445
1747275449400866300,8.5498662109375,1.832595705986023,0.8930850028991699,1.5546520948410034
1747275449416935700,8.565935791015624,1.7146987915039062,0.8753699064254761,1.3182471990585327
1747275449432957200,8.581957275390625,1.2296717166900635,-0.252287358045578,0.3903428912162781
1747275449448982300,8.597982177734375,0.9028588533401489,0.09407325088977814,0.17409659922122955
1747275449465021700,8.614021728515626,0.5510004758834839,0.5540547966957092,0.07513642311096191
1747275449481054700,8.6300546875,0.36163222789764404,0.43615779280662537,0.02932153269648552
1747275449497113900,8.64611376953125,0.43188172578811646,0.18509216606616974,0.02871066704392433
1747275449513154000,8.662154052734374,0.46547931432724,-0.08918632566928864,0.04948008432984352
1747275449529178000,8.67817822265625,0.34574973583221436,-0.09407325088977814,0
1747275449545178000,8.69417822265625,0.24129177629947662,0.07330382615327835,-0.13500121235847473
1747275449561169200,8.710169189453126,0.2681698501110077,0.4080579876899719,-0.24678955972194672
1747275449577188900,8.72618896484375,0.3995058834552765,0.7519751191139221,-0.31581732630729675
1747275449593219800,8.7422197265625,0.5876523852348328,0.6096435189247131,-0.33108896017074585
1747275449609246200,8.75824609375,0.6163630485534668,0.6102544069290161,-0.28099802136421204
1747275449625294300,8.77429443359375,0.5717698931694031,0.8289441466331482,-0.22296582162380219
1747275449641321000,8.790321044921875,0.5009095072746277,1.168585181236267,-0.2021963894367218
1747275449657416000,8.806416015625,0.3286454975605011,1.2589932680130005,-0.13988813757896423
1747275449673460000,8.8224599609375,0.24862214922904968,1.2150110006332397,-0.09407325088977814
1747275449689486800,8.83848681640625,0.3982841372489929,1.2748757600784302,-0.05742133408784866
1747275449705531400,8.854531494140625,0.7452555894851685,1.4953981637954712,-0.0555887371301651
1747275449721573600,8.87057373046875,0.9560040831565857,1.8967366218566895,0.04214970022439957
1747275449737637400,8.886637451171875,0.7037167549133301,1.6762142181396484,0.2687807083129883
1747275449753672000,8.902671875,0.4190535545349121,0.5723807215690613,0.7819074988365173
1747275449769696500,8.918696533203125,-0.054367005825042725,0.17531833052635193,1.1050552129745483
1747275449785696000,8.934696044921875,-0.19975294172763824,0.31642818450927734,1.1661417484283447
1747275449801720300,8.95072021484375,-0.09468411654233932,0.9902125597000122,0.9828822016716003
1747275449817741600,8.966741455078125,-0.15882496535778046,1.1887437105178833,0.836885392665863
1747275449833767400,8.982767333984375,-0.4789183437824249,1.1252137422561646,0.6743952035903931
1747275449849793000,8.99879296875,-0.7415903806686401,1.4178181886672974,0.44104471802711487
1747275449865836000,9.0148359375,-0.8436049222946167,1.9602665901184082,0.16249015927314758
1747275449881834500,9.03083447265625,-0.6591235995292664,1.5821410417556763,-0.0861319974064827
1747275449897896400,9.046896484375,-0.18325957655906677,2.0286834239959717,-0.6951646208763123
1747275449913967600,9.062967529296875,0.3787364661693573,2.7763824462890625,-1.1441506147384644
1747275449929989600,9.07898974609375,0.7116580009460449,3.0360002517700195,-1.3298536539077759
1747275449946027800,9.09502783203125,0.7110471725463867,2.8044822216033936,-1.264491081237793
1747275449962059500,9.1110595703125,0.2968805134296417,2.693915843963623,-1.130711555480957
1747275449978122000,9.1271220703125,-0.8100073337554932,1.2620476484298706,-0.018936822190880775
1747275449994157300,9.1431572265625,-1.455691933631897,0.8796459436416626,1.550986886024475
1747275450010183400,9.159183349609375,-0.29504790902137756,2.060448408126831,1.86191725730896
1747275450026182100,9.17518212890625,0.2968805134296417,2.0867156982421875,2.3322834968566895
1747275450042180000,9.19118017578125,0.4337143301963806,2.6511552333831787,2.472782611846924
1747275450058248700,9.207248779296876,0.2028072625398636,2.5173757076263428,2.072054862976074
1747275450074278000,9.22327783203125,-0.2828305959701538,1.8680258989334106,1.644449234008789
1747275450090306600,9.239306640625,-0.6053674817085266,1.5564846992492676,1.3701707124710083
1747275450106376200,9.255376220703125,-0.7257078886032104,1.570534586906433,1.3274102210998535
1747275450122408400,9.271408447265625,-0.6481280326843262,1.5668693780899048,1.4233160018920898
1747275450138474200,9.28747412109375,-0.45142942667007446,1.4373658895492554,1.3439035415649414
1747275450154505700,9.303505615234375,-0.2926044464111328,1.0952813625335693,1.214400053024292
1747275450170533000,9.319533203125,-0.039706241339445114,1.2541064023971558,1.2602150440216064
1747275450186580200,9.335580322265624,0.19853121042251587,0.9828822016716003,1.3066407442092896
1747275450202589700,9.351589599609374,0.24495697021484375,0.6921103000640869,1.3298536539077759
1747275450218654500,9.367654541015625,0.48258355259895325,1.8020524978637695,1.291369080543518
1747275450234691800,9.38369189453125,1.1129964590072632,1.7690657377243042,1.2137892246246338
1747275450250721300,9.39972119140625,1.7812830209732056,2.0482311248779297,1.23394775390625
1747275450266767600,9.415767578125,2.4055874347686768,2.140471935272217,1.2125675678253174
1747275450282791000,9.431791015625,2.679865837097168,2.0396790504455566,1.037249207496643
1747275450298837200,9.447837158203125,2.4556782245635986,2.026850938796997,0.8515461683273315
1747275450314876400,9.46387646484375,2.2290472984313965,2.0335702896118164,0.9382890462875366
1747275450330903000,9.479903076171874,2.381152629852295,2.353663682937622,1.5796974897384644
1747275450346948400,9.4959482421875,2.9437596797943115,2.995683193206787,2.3035728931427
1747275450362946300,9.5119462890625,3.8093557357788086,3.1196887493133545,3.0750956535339355
1747275450379013400,9.528013427734376,2.464841365814209,2.3933699131011963,4.7806315422058105
1747275450395038200,9.5440380859375,3.2510247230529785,1.9712620973587036,4.620584487915039
1747275450411069000,9.56006884765625,3.1667253971099854,3.0860912799835205,4.3169846534729
1747275450427117800,9.576117919921876,2.6505444049835205,3.0634891986846924,3.975511074066162
1747275450443150600,9.592150634765625,2.2876904010772705,2.83074951171875,3.8258490562438965
1747275450459222800,9.608222900390626,1.9633208513259888,2.258979558944702,3.6615262031555176
1747275450475262700,9.6242626953125,1.2522737979888916,1.4691308736801147,3.3371567726135254
1747275450491292000,9.6402919921875,0.3488040566444397,0.8527678847312927,3.1276299953460693
1747275450507295700,9.656295654296875,-0.6053674817085266,0.5381723046302795,3.0909781455993652
1747275450523298000,9.672298095703125,-0.8185594081878662,0.7489207983016968,3.1331279277801514
1747275450539410000,9.688409912109375,-0.11545353382825851,1.0238101482391357,3.012176513671875
1747275450555440000,9.704440185546876,0.759916365146637,0.960280179977417,2.5980098247528076
1747275450571476700,9.720476806640624,1.1435397863388062,1.3445143699645996,1.9242255687713623
1747275450587520800,9.736520751953124,0.6743952035903931,2.1508564949035645,2.442850112915039
1747275450603549200,9.752549072265625,0.1661553531885147,1.2516628503799438,2.2730295658111572
1747275450619617800,9.76861767578125,-0.024434609338641167,1.1074986457824707,2.1954495906829834
1747275450635649000,9.78464892578125,0.1472185254096985,0.9083566069602966,1.9889771938323975
1747275450651679700,9.8006796875,0.45631635189056396,0.5357288122177124,1.663996934890747
1747275450667730400,9.81673046875,0.5650503635406494,0.24434609711170197,1.4233160018920898
1747275450683734300,9.832734375,0.31581732630729675,0.43737950921058655,1.1325441598892212
1747275450699799000,9.848799072265624,-0.04214970022439957,0.656680166721344,0.9718865752220154
1747275450715832000,9.86483203125,-0.22846360504627228,0.665232241153717,0.9957103729248047
1747275450731859700,9.880859619140624,-0.17104226350784302,0.6676757335662842,1.0207557678222656
1747275450747861500,9.896861572265625,0.16982053220272064,0.43676865100860596,0.9804387092590332
1747275450763850200,9.912850341796876,0.5271766781806946,0.14844025671482086,0.9932668805122375
1747275450779882500,9.928882568359375,0.665232241153717,0.08552113175392151,0.9523389339447021
1747275450795926300,9.94492626953125,0.45814892649650574,0.13072516024112701,0.9254608750343323
1747275450811952600,9.96095263671875,0.08002334833145142,-0.10751228034496307,0.9755517840385437
1747275450828035300,9.977035400390625,-0.2889392673969269,-0.6304129362106323,0.8662069439888
1747275450844032000,9.993031982421876,-0.2480112910270691,-0.34697145223617554,0.4331034719944
1747275450860095700,10.009095703125,-0.08796459436416626,0.0403171069920063,0.06719517707824707
1747275450876116000,10.025115966796875,0.04153883829712868,0.12828169763088226,0.04703662544488907
1747275450892138800,10.041138671875,0.14905111491680145,0.22296582162380219,0.06291911751031876
1747275450908180000,10.057179931640626,0.16798794269561768,0.2669481039047241,0.03481931984424591
1747275450924180200,10.07318017578125,0.13744467496871948,0.2474004179239273,0.07513642311096191
1747275450940250400,10.08925048828125,0.24007004499435425,0.41233405470848083,0.10751228034496307
1747275450956293400,10.10529345703125,0.3127630054950714,0.36651915311813354,0.1918116807937622
1747275450972319200,10.1213193359375,0.19792033731937408,0.2064724564552307,0.17287486791610718
1747275450988349400,10.137349365234375,0.04153883829712868,-0.048258353024721146,0.05253441259264946
1747275451004346000,10.15334619140625,0.001832595793530345,0.022602014243602753,0.019547687843441963
1747275451020360200,10.169360107421875,0.07452555745840073,-0.0006108652451075613,0.060475658625364304
1747275451036403200,10.1854033203125,0.07696902006864548,-0.036651913076639175,0.042760565876960754
1747275451052429000,10.201428955078125,0.04459316283464432,-0.03237585723400116,0.054367005825042725
1747275451068481300,10.217481201171875,0.005497787147760391,-0.0403171069920063,0.06230825558304787
1747275451084489000,10.233489013671875,-0.012828170321881771,-0.036651913076639175,0.04703662544488907
1747275451100565000,10.24956494140625,-0.04153883829712868,0.033597588539123535,0.012217304669320583
1747275451116607000,10.26560693359375,-0.07452555745840073,0.07452555745840073,0.0024434609804302454
1747275451132634000,10.281634033203124,-0.021991148591041565,0.06475171446800232,0.02076941914856434
1747275451148686800,10.297686767578124,0.054367005825042725,0.06719517707824707,0.05925392732024193
1747275451164683300,10.313683349609375,0.06291911751031876,0.09224065393209457,0.08552113175392151
1747275451180756500,10.329756591796874,0.048258353024721146,0.0403171069920063,0.056810468435287476
1747275451196802600,10.345802490234375,0.04092797264456749,-0.05375614017248154,0.004886921960860491
1747275451212832000,10.36183203125,0.004886921960860491,-0.12828169763088226,0.01160643994808197
1747275451228844800,10.3778447265625,-0.05864306539297104,-0.0959058403968811,0.08796459436416626
1747275451244857000,10.393857177734375,0.0012217304902151227,-0.32681289315223694,0.3280346393585205
1747275451260889900,10.409889892578125,0.025656340643763542,-0.5607742667198181,0.6023131608963013
1747275451276912000,10.425912109375,-0.004886921960860491,-0.5283984541893005,0.9144652485847473
1747275451292934400,10.441934326171875,0.03726277872920036,1.359786033630371,-0.16493362188339233
1747275451309024300,10.458024169921876,0.004886921960860491,-0.004886921960860491,-0.02015855349600315
1747275451325023200,10.474023193359375,0,-0.0006108652451075613,-0.009162978269159794
1747275451341088300,10.490088134765625,-0.001832595793530345,0.004886921960860491,-0.003054326167330146
1747275451357130800,10.506130859375,-0.0012217304902151227,-0.0012217304902151227,0.0012217304902151227
1747275451373157600,10.52215771484375,0,-0.0012217304902151227,0.001832595793530345
1747275451389213400,10.53821337890625,0.0006108652451075613,0.0012217304902151227,-0.0012217304902151227
1747275451405273600,10.554273681640625,-0.0012217304902151227,-0.0024434609804302454,0.0012217304902151227
1747275451421340700,10.570340576171875,0.0012217304902151227,-0.0012217304902151227,0.0006108652451075613
1747275451437384400,10.586384521484375,0.001832595793530345,-0.001832595793530345,-0.0012217304902151227
1747275451453410600,10.60241064453125,0.0024434609804302454,0.0012217304902151227,0.0006108652451075613
1747275451469422800,10.6184228515625,0.0006108652451075613,-0.0006108652451075613,0
1747275451485425400,10.63442529296875,0,0.0012217304902151227,-0.001832595793530345
1747275451501460500,10.65046044921875,0,0.001832595793530345,-0.0006108652451075613
1747275451517508600,10.666508544921875,0.0012217304902151227,0,0.0006108652451075613
1747275451533536000,10.682535888671875,-0.0006108652451075613,-0.0006108652451075613,-0.0006108652451075613
1747275451549590500,10.698590576171876,0.0006108652451075613,0,-0.0012217304902151227
1747275451565606100,10.714606201171875,0,-0.0012217304902151227,0
1747275451581674200,10.73067431640625,0.0012217304902151227,0,-0.0006108652451075613
1747275451597749200,10.746749267578124,0.001832595793530345,0.001832595793530345,-0.0012217304902151227
1747275451613772800,10.762772705078126,0.001832595793530345,0,-0.0012217304902151227
1747275451629829000,10.7788291015625,0.001832595793530345,0.0006108652451075613,-0.003054326167330146
1747275451645831700,10.794831787109375,-0.0006108652451075613,0,0
1747275451661905000,10.81090478515625,0.0012217304902151227,0.0006108652451075613,0.0006108652451075613
1747275451677951000,10.826950927734375,-0.0006108652451075613,0.0006108652451075613,-0.001832595793530345
1747275451693976300,10.842976318359375,0.0012217304902151227,-0.0006108652451075613,0.0006108652451075613
1747275451709990000,10.858989990234376,0.0012217304902151227,-0.0006108652451075613,0
1747275451726024200,10.875024169921875,-0.0006108652451075613,0.0012217304902151227,-0.0006108652451075613
1747275451742056000,10.891055908203125,0.0006108652451075613,0.0012217304902151227,-0.001832595793530345
1747275451758100700,10.907100830078125,0,-0.0006108652451075613,0
1747275451774129700,10.923129638671876,0.001832595793530345,0,0
1747275451790226700,10.939226806640624,-0.0012217304902151227,-0.0006108652451075613,0
1747275451806224400,10.955224365234375,-0.0012217304902151227,0.0006108652451075613,-0.0012217304902151227
1747275451822295800,10.9712958984375,0,0.0012217304902151227,-0.0006108652451075613
1747275451838337000,10.9873369140625,0.0012217304902151227,0.0012217304902151227,0
1747275451854360600,11.003360595703125,0,-0.0012217304902151227,-0.0012217304902151227
1747275451870412300,11.019412353515625,0.0006108652451075613,0.0012217304902151227,-0.0006108652451075613
1747275451886483200,11.035483154296875,-0.0006108652451075613,0,-0.0012217304902151227
1747275451902559200,11.051559326171875,0.001832595793530345,-0.0012217304902151227,0
1747275451918609000,11.06760888671875,-0.0006108652451075613,-0.0006108652451075613,0
1747275451934638800,11.083638916015625,0,0.0012217304902151227,-0.0006108652451075613
1747275451950649600,11.099649658203125,0.0006108652451075613,0,0.0006108652451075613
1747275451966649600,11.115649658203125,0,0,0
1747275451982683600,11.13168359375,0.0006108652451075613,0,-0.0012217304902151227
1747275451998728000,11.14772802734375,0.001832595793530345,-0.0012217304902151227,0.0006108652451075613
1747275452014753000,11.1637529296875,-0.001832595793530345,0.0006108652451075613,0
1747275452030812700,11.179812744140625,0,-0.0006108652451075613,-0.0012217304902151227
1747275452046847700,11.19584765625,-0.0006108652451075613,-0.001832595793530345,-0.0012217304902151227
1747275452062925300,11.21192529296875,0.0006108652451075613,0.0006108652451075613,-0.001832595793530345
1747275452078990600,11.227990478515625,0,0.0006108652451075613,0
1747275452095014400,11.244014404296875,0,-0.0006108652451075613,0
1747275452111064600,11.260064697265625,0,-0.0006108652451075613,0
1747275452127058000,11.276057861328125,0.0006108652451075613,-0.0012217304902151227,-0.0012217304902151227
1747275452143126500,11.29212646484375,0.0012217304902151227,-0.001832595793530345,-0.0006108652451075613
1747275452159169500,11.30816943359375,0.0006108652451075613,0.0006108652451075613,-0.0012217304902151227
1747275452175194400,11.3241943359375,0.0006108652451075613,0.001832595793530345,-0.0024434609804302454
1747275452191204600,11.34020458984375,0,0.0012217304902151227,0
1747275452207247000,11.3562470703125,-0.0006108652451075613,0.001832595793530345,0
1747275452223284000,11.372283935546875,0.0012217304902151227,0.0012217304902151227,-0.0006108652451075613
1747275452239331800,11.388331787109376,0.0024434609804302454,0.003054326167330146,0.0006108652451075613
1747275452255357700,11.404357666015626,0.0006108652451075613,0.0024434609804302454,-0.001832595793530345
1747275452271447600,11.420447509765625,0.0006108652451075613,0.0012217304902151227,-0.0024434609804302454
1747275452287441400,11.43644140625,0.0012217304902151227,0,-0.0012217304902151227
1747275452303516700,11.4525166015625,0.0012217304902151227,0,-0.0006108652451075613
1747275452319559000,11.468558837890624,0,-0.001832595793530345,0.001832595793530345
1747275452335609600,11.484609619140626,0.0012217304902151227,0,0
1747275452351665200,11.5006650390625,0.0006108652451075613,0.0006108652451075613,-0.0006108652451075613
1747275452367690500,11.5166904296875,0,0.0024434609804302454,-0.001832595793530345
1747275452383762700,11.5327626953125,0,0.0006108652451075613,-0.0024434609804302454
1747275452399802000,11.548802001953124,-0.001832595793530345,-0.0006108652451075613,-0.0012217304902151227
1747275452415824400,11.564824462890625,0.0006108652451075613,0,-0.0006108652451075613
1747275452431834400,11.58083447265625,-0.0006108652451075613,-0.001832595793530345,0.0006108652451075613
1747275452447842000,11.596842041015625,-0.0012217304902151227,-0.0006108652451075613,0.0006108652451075613
1747275452463877000,11.612877197265625,0.001832595793530345,-0.0006108652451075613,0.0006108652451075613
1747275452479918300,11.62891845703125,0.001832595793530345,0.0006108652451075613,-0.0012217304902151227
1747275452495945500,11.644945556640625,0,0.0006108652451075613,0
1747275452511957500,11.66095751953125,0.0012217304902151227,0,-0.0006108652451075613
1747275452527947800,11.67694775390625,-0.0012217304902151227,-0.0024434609804302454,-0.0006108652451075613
1747275452543977500,11.6929775390625,0.0006108652451075613,-0.0006108652451075613,0.0006108652451075613
1747275452560066800,11.70906689453125,0.0006108652451075613,-0.0024434609804302454,-0.0006108652451075613
1747275452576095000,11.725094970703125,0,-0.001832595793530345,-0.0006108652451075613
1747275452592192500,11.741192626953126,0.0012217304902151227,-0.0006108652451075613,-0.0006108652451075613
1747275452608189700,11.757189697265625,0.0006108652451075613,0,-0.0012217304902151227
1747275452624223000,11.773222900390625,0.0012217304902151227,0,0
1747275452640262100,11.78926220703125,-0.0006108652451075613,0.0006108652451075613,0.0012217304902151227
1747275452656286700,11.80528662109375,-0.0006108652451075613,-0.001832595793530345,0
1747275452672294700,11.821294677734375,0.0006108652451075613,0,-0.0012217304902151227
1747275452688290300,11.837290283203124,0.001832595793530345,0,0
1747275452704322800,11.85332275390625,0,0,-0.001832595793530345
1747275452720367400,11.869367431640624,0,0.0006108652451075613,-0.001832595793530345
1747275452736394200,11.885394287109374,0.0006108652451075613,-0.0006108652451075613,-0.0012217304902151227
1747275452760450300,11.9094501953125,0,-0.0012217304902151227,0.0012217304902151227
1747275452776479500,11.9254794921875,0.0006108652451075613,-0.0006108652451075613,0
1747275452792486700,11.941486572265624,0.0006108652451075613,0,-0.0012217304902151227
1747275452808513300,11.95751318359375,0.0012217304902151227,0.0006108652451075613,-0.0006108652451075613
1747275452824542700,11.973542724609375,0.001832595793530345,0.0012217304902151227,-0.001832595793530345
1747275452848547300,11.99754736328125,0,0.0006108652451075613,0.0012217304902151227
1747275452864578300,12.013578369140625,-0.0006108652451075613,0,0
1747275452880622000,12.0296220703125,0.0012217304902151227,0.0006108652451075613,0.001832595793530345
1747275452896650000,12.04564990234375,-0.0012217304902151227,0,0
1747275452912659500,12.061659423828125,0.0006108652451075613,0.0012217304902151227,-0.0012217304902151227
1747275452928655400,12.0776552734375,-0.0006108652451075613,0,-0.001832595793530345
1747275452944687400,12.093687255859376,0.0006108652451075613,0,-0.001832595793530345
1747275452960727000,12.10972705078125,-0.0012217304902151227,-0.0012217304902151227,0
1747275452976755700,12.125755615234375,0,-0.0006108652451075613,0.0006108652451075613
1747275452992767000,12.14176708984375,0.001832595793530345,-0.0012217304902151227,0.0006108652451075613
1747275453008759300,12.15775927734375,-0.0006108652451075613,0.0006108652451075613,-0.0006108652451075613
1747275453024796400,12.17379638671875,0.0012217304902151227,0.0006108652451075613,-0.0012217304902151227
1747275453040875000,12.189875,0.0012217304902151227,-0.0012217304902151227,-0.001832595793530345
1747275453056897500,12.2058974609375,0,-0.0012217304902151227,-0.0006108652451075613
1747275453072906000,12.221906005859376,-0.0006108652451075613,-0.0012217304902151227,-0.0006108652451075613
1747275453088903700,12.237903564453125,0,-0.0006108652451075613,0
1747275453104937700,12.253937744140625,0.0006108652451075613,-0.0012217304902151227,0.0006108652451075613
1747275453120981200,12.269981201171875,-0.0006108652451075613,-0.0006108652451075613,-0.0012217304902151227
1747275453137009400,12.286009521484376,0.0006108652451075613,0.0006108652451075613,0
1747275453153026300,12.3020263671875,0.0006108652451075613,0.0012217304902151227,-0.0006108652451075613
1747275453169032000,12.318031982421875,0.0006108652451075613,0,-0.0012217304902151227
1747275453185066000,12.33406591796875,0.0006108652451075613,-0.0012217304902151227,0
1747275453201109500,12.350109619140625,0.0012217304902151227,-0.0006108652451075613,0
1747275453217132500,12.366132568359374,0.001832595793530345,-0.0006108652451075613,0
1747275453233143300,12.382143310546875,0.001832595793530345,0.0006108652451075613,-0.0012217304902151227
1747275453249141500,12.3981416015625,0,0,-0.0012217304902151227
1747275453265174500,12.414174560546876,0.0012217304902151227,0.0012217304902151227,-0.0012217304902151227
1747275453281214700,12.430214599609375,0.0006108652451075613,-0.0006108652451075613,-0.0012217304902151227
1747275453297241300,12.446241455078125,0,0,0
1747275453313251800,12.462251953125,-0.001832595793530345,0.0006108652451075613,0.0006108652451075613
1747275453329290000,12.4782900390625,-0.0006108652451075613,-0.0006108652451075613,-0.0006108652451075613
1747275453345317400,12.4943173828125,0.0006108652451075613,0.0006108652451075613,-0.0006108652451075613
1747275453361357000,12.510357177734376,0.0012217304902151227,0,-0.0012217304902151227
1747275453377384200,12.52638427734375,0,0.0012217304902151227,-0.003054326167330146
1747275453393398000,12.54239794921875,-0.0006108652451075613,0,0
1747275453409399600,12.558399658203125,0,0.0012217304902151227,0.0006108652451075613
1747275453425434600,12.5744345703125,0.0006108652451075613,0,-0.0012217304902151227
1747275453441477000,12.59047705078125,0.0012217304902151227,-0.0006108652451075613,0
1747275453457501400,12.60650146484375,0,0.0012217304902151227,0.0012217304902151227
1747275453473514200,12.62251416015625,-0.0006108652451075613,0.0012217304902151227,-0.0012217304902151227
1747275453489528800,12.63852880859375,-0.0006108652451075613,0,-0.0006108652451075613
1747275453505566500,12.65456640625,0.0012217304902151227,0.0006108652451075613,-0.0006108652451075613
1747275453521612300,12.6706123046875,-0.0006108652451075613,-0.0012217304902151227,0
1747275453537641500,12.686641357421875,0.0006108652451075613,0,-0.0012217304902151227
1747275453553658000,12.702658203125,0,0.0006108652451075613,0.0006108652451075613
1747275453569661200,12.7186611328125,0,0,0
1747275453585698300,12.7346982421875,0.0006108652451075613,0,0.0006108652451075613
1747275453601744400,12.750744384765625,0.0012217304902151227,0.0006108652451075613,-0.0006108652451075613
1747275453617771800,12.766771728515625,0,0,-0.0006108652451075613
1747275453633783800,12.78278369140625,-0.0006108652451075613,0.0006108652451075613,-0.0012217304902151227
1747275453649801200,12.79880126953125,0.0012217304902151227,0,0.0012217304902151227
1747275453665858000,12.814858154296875,0.0006108652451075613,0.0012217304902151227,-0.0006108652451075613
1747275453681898800,12.830898681640624,0,0.0006108652451075613,0
1747275453697926000,12.84692578125,0.0012217304902151227,-0.001832595793530345,-0.0012217304902151227
1747275453713945900,12.86294580078125,0.0006108652451075613,0.001832595793530345,-0.0006108652451075613
1747275453729948000,12.878947998046876,0,0.0012217304902151227,0.0006108652451075613
1747275453745976000,12.89497607421875,0.0006108652451075613,-0.0024434609804302454,0
1747275453762013200,12.91101318359375,0.0024434609804302454,-0.0006108652451075613,0
1747275453778043000,12.92704296875,0,0.0006108652451075613,-0.0006108652451075613
1747275453794053000,12.94305322265625,0,0.0006108652451075613,-0.0006108652451075613
1747275453810077200,12.9590771484375,-0.0012217304902151227,-0.0012217304902151227,-0.0012217304902151227
1747275453826114600,12.975114501953126,0.0006108652451075613,-0.0006108652451075613,-0.001832595793530345
1747275453842162700,12.99116259765625,0.0006108652451075613,-0.0006108652451075613,-0.0006108652451075613
1747275453858189300,13.007189208984375,0,0.0006108652451075613,-0.0006108652451075613
1747275453874199800,13.02319970703125,0.0012217304902151227,-0.0006108652451075613,-0.0006108652451075613
1747275453890196500,13.039196533203125,-0.0012217304902151227,0.0006108652451075613,-0.0006108652451075613
1747275453906234000,13.055234130859375,0,-0.0006108652451075613,-0.0012217304902151227
1747275453922279700,13.07127978515625,0.0006108652451075613,0.001832595793530345,-0.001832595793530345
1747275453938307600,13.0873076171875,-0.0012217304902151227,0,-0.0012217304902151227
1747275453954320400,13.1033203125,0.0012217304902151227,-0.0006108652451075613,0
1747275453970349300,13.119349365234376,0.0012217304902151227,-0.0012217304902151227,0
1747275453986382800,13.1353828125,0.0006108652451075613,-0.0012217304902151227,0
1747275454002458600,13.151458740234375,-0.0006108652451075613,0,-0.0012217304902151227
1747275454018486300,13.167486328125,0.0012217304902151227,-0.0012217304902151227,-0.001832595793530345
1747275454034505500,13.18350537109375,-0.0006108652451075613,0,-0.0006108652451075613
1747275454050502700,13.199502685546875,0.0006108652451075613,0.0006108652451075613,0
1747275454066533000,13.215533203125,0.0006108652451075613,-0.0006108652451075613,0.0006108652451075613
1747275454082576100,13.231576171875,0.0006108652451075613,-0.0012217304902151227,0
1747275454098599700,13.247599609375,0.0012217304902151227,0,0.0006108652451075613
1747275454114674700,13.2636748046875,0,0.0006108652451075613,-0.0024434609804302454
1747275454130703000,13.279703125,0.0006108652451075613,0.0012217304902151227,-0.0012217304902151227
1747275454146737700,13.295737548828125,-0.0006108652451075613,0,-0.0012217304902151227
1747275454162778400,13.3117783203125,0.0012217304902151227,0.0006108652451075613,0.0006108652451075613
1747275454178805500,13.327805419921875,0.001832595793530345,0,0
1747275454202822100,13.351822265625,0,0.0006108652451075613,-0.0012217304902151227
1747275454218854100,13.367854248046875,0,0.0012217304902151227,-0.0006108652451075613
1747275454234869000,13.383868896484374,0.001832595793530345,0.001832595793530345,0
1747275454250901800,13.39990185546875,0.0012217304902151227,0.0006108652451075613,-0.0012217304902151227
1747275454266930400,13.415930419921875,0.001832595793530345,-0.001832595793530345,-0.0012217304902151227
1747275454282981400,13.4319814453125,0.0006108652451075613,0.0006108652451075613,-0.0012217304902151227
1747275454299008300,13.44800830078125,-0.0006108652451075613,-0.0006108652451075613,-0.0006108652451075613
1747275454315069000,13.46406884765625,0.0006108652451075613,0,0
1747275454331103000,13.48010302734375,0.0012217304902151227,-0.0012217304902151227,0
1747275454347131100,13.496131103515625,-0.0006108652451075613,0,-0.0012217304902151227
1747275454363137000,13.512136962890626,-0.0012217304902151227,0.0012217304902151227,-0.0006108652451075613
1747275454379165000,13.5281650390625,0.0006108652451075613,0,-0.0012217304902151227
1747275454395177500,13.544177490234375,0.0006108652451075613,-0.0006108652451075613,0.0006108652451075613
1747275454411209700,13.560209716796875,0,0,-0.0006108652451075613
1747275454427239000,13.576239013671875,0.0006108652451075613,0.0012217304902151227,-0.0006108652451075613
1747275454443282000,13.592281982421875,0.0012217304902151227,0,0
1747275454459308300,13.608308349609375,0,0,-0.0006108652451075613
1747275454475318500,13.624318603515626,0.0006108652451075613,0,0
1747275454491374000,13.6403740234375,0.0012217304902151227,0.0006108652451075613,-0.001832595793530345
1747275454507404800,13.65640478515625,0.0006108652451075613,0.0006108652451075613,-0.0012217304902151227
1747275454523414000,13.6724140625,0.0006108652451075613,0.0006108652451075613,0.0006108652451075613
1747275454539441400,13.68844140625,0.001832595793530345,-0.0012217304902151227,-0.0012217304902151227
1747275454555452200,13.7044521484375,0.0006108652451075613,0.0006108652451075613,0.0006108652451075613
1747275454571482000,13.720482177734375,0,-0.0006108652451075613,-0.0006108652451075613
1747275454587511300,13.73651123046875,0.0012217304902151227,0.0012217304902151227,-0.0006108652451075613
1747275454603516000,13.752515869140625,0.0012217304902151227,-0.0006108652451075613,-0.0006108652451075613
1747275454619547100,13.768547119140624,0.0012217304902151227,0,-0.0012217304902151227
1747275454635559000,13.784558837890625,0.001832595793530345,0,-0.001832595793530345
1747275454651591000,13.8005908203125,0,0,0
1747275454667622100,13.8166220703125,0,0.0012217304902151227,-0.0006108652451075613
1747275454683668500,13.83266845703125,0,0,-0.0006108652451075613
1747275454699697200,13.848697265625,-0.0012217304902151227,0.0012217304902151227,-0.001832595793530345
1747275454715709400,13.86470947265625,0,-0.0006108652451075613,0
1747275454731743500,13.880743408203125,0.0012217304902151227,0,-0.0006108652451075613
1747275454747775200,13.896775146484375,0.0006108652451075613,0,-0.0006108652451075613
1747275454763791400,13.912791259765624,0.0012217304902151227,0.001832595793530345,-0.0012217304902151227
1747275454779867400,13.928867431640626,0.0012217304902151227,0,-0.0012217304902151227
1747275454795881000,13.944880859375,0.003054326167330146,-0.0006108652451075613,-0.0012217304902151227
1747275454811921000,13.9609208984375,-0.0012217304902151227,0.0012217304902151227,-0.0012217304902151227
1747275454827941400,13.97694140625,-0.0006108652451075613,0.0006108652451075613,0.0006108652451075613
1747275454843950800,13.992950927734375,0,0,-0.0006108652451075613
1747275454859980300,14.008980224609376,-0.001832595793530345,0.0006108652451075613,0.0006108652451075613
1747275454875986200,14.024986083984375,0.0006108652451075613,0,-0.0006108652451075613
1747275454892010000,14.041010009765625,0.001832595793530345,0.0006108652451075613,-0.001832595793530345
1747275454908040200,14.057040283203126,0,0,-0.0012217304902151227
1747275454924049400,14.07304931640625,-0.0006108652451075613,0.0012217304902151227,-0.0012217304902151227
1747275454940078300,14.089078369140625,-0.001832595793530345,0.0006108652451075613,-0.0006108652451075613
1747275454956087600,14.105087646484375,-0.0012217304902151227,-0.0006108652451075613,-0.0006108652451075613
1747275454972163600,14.12116357421875,0.0006108652451075613,0.0006108652451075613,0
1747275454988193800,14.13719384765625,0,0.0012217304902151227,-0.0006108652451075613
1747275455004227300,14.153227294921875,0,0.003054326167330146,-0.0006108652451075613
1747275455020252000,14.169251953125,0.0006108652451075613,0.0012217304902151227,-0.0006108652451075613
1747275455036285400,14.185285400390624,-0.0012217304902151227,0.0006108652451075613,-0.001832595793530345
1747275455052317700,14.201317626953125,-0.0006108652451075613,0,-0.001832595793530345
1747275455068339500,14.21733935546875,0.0006108652451075613,0.0006108652451075613,-0.001832595793530345
1747275455084348200,14.23334814453125,-0.0012217304902151227,0,0
1747275455100374800,14.249374755859375,0,0.0006108652451075613,0
1747275455124414700,14.273414794921875,0.0012217304902151227,0.0024434609804302454,-0.0006108652451075613
1747275455140442400,14.2894423828125,-0.0006108652451075613,0.0006108652451075613,0
1747275455156502300,14.305502197265625,0.0006108652451075613,0.001832595793530345,-0.0024434609804302454
1747275455172500700,14.321500732421875,0.0006108652451075613,0.0012217304902151227,0
1747275455188532000,14.337531982421876,0,0.0024434609804302454,-0.0012217304902151227
1747275455204569000,14.353569091796874,-0.0006108652451075613,-0.0006108652451075613,0.0006108652451075613
1747275455220591000,14.369591064453125,-0.001832595793530345,0.0006108652451075613,0
1747275455236600000,14.38560009765625,-0.0006108652451075613,0.0006108652451075613,-0.0012217304902151227
1747275455252608000,14.40160791015625,-0.0006108652451075613,0.0024434609804302454,0
1747275455268639000,14.417638916015624,-0.0006108652451075613,0,0
1747275455284678100,14.43367822265625,-0.001832595793530345,0.001832595793530345,0
1747275455300701400,14.449701416015625,0,0,-0.0006108652451075613
1747275455316707600,14.46570751953125,0,0,-0.001832595793530345
1747275455332701700,14.48170166015625,0,0.0006108652451075613,0
1747275455348732700,14.497732666015626,-0.0006108652451075613,0.0006108652451075613,-0.0012217304902151227
1747275455364767700,14.513767822265624,0,0.0012217304902151227,0
1747275455380786700,14.52978662109375,-0.001832595793530345,0.0012217304902151227,-0.0012217304902151227
1747275455396796700,14.545796630859375,0.0006108652451075613,0.0006108652451075613,0
1747275455412805400,14.561805419921875,-0.0012217304902151227,0.0024434609804302454,-0.0006108652451075613
1747275455428837600,14.577837646484374,-0.0006108652451075613,0.0006108652451075613,0.0006108652451075613
1747275455444930300,14.593930419921875,-0.0012217304902151227,0.0006108652451075613,-0.0012217304902151227
1747275455460958500,14.60995849609375,0.0006108652451075613,0.001832595793530345,-0.0006108652451075613
1747275455476970800,14.625970703125,-0.0012217304902151227,0.0006108652451075613,0
1747275455492968000,14.641968017578124,-0.0012217304902151227,0.0012217304902151227,0
1747275455508998400,14.657998291015625,-0.0012217304902151227,-0.0006108652451075613,-0.0024434609804302454
1747275455525043000,14.67404296875,0.0012217304902151227,0.001832595793530345,0.0006108652451075613
1747275455541068800,14.69006884765625,0.0012217304902151227,-0.0012217304902151227,-0.0006108652451075613
1747275455557079000,14.7060791015625,0,0.001832595793530345,-0.0012217304902151227
1747275455581118700,14.73011865234375,0,0,0
1747275455605167400,14.75416748046875,-0.0012217304902151227,-0.0006108652451075613,-0.0012217304902151227
1747275455621192700,14.770192626953126,-0.0006108652451075613,0.0012217304902151227,0
1747275455637243100,14.7862431640625,-0.0006108652451075613,0.001832595793530345,0
1747275455653244700,14.80224462890625,0,0.0012217304902151227,-0.004886921960860491
1747275455669279700,14.81827978515625,0,0.0006108652451075613,-0.001832595793530345
1747275455685319200,14.834319091796875,0.0006108652451075613,0.0012217304902151227,-0.001832595793530345
1747275455701343700,14.85034375,0,0.001832595793530345,0
1747275455717355000,14.86635498046875,-0.0006108652451075613,0,0
1747275455733374200,14.882374267578125,-0.0012217304902151227,0.001832595793530345,-0.0006108652451075613
1747275455749405700,14.89840576171875,-0.0006108652451075613,0.0024434609804302454,0
1747275455765444000,14.914444091796875,0,0,0.0012217304902151227
1747275455781465000,14.930465087890624,-0.0006108652451075613,0.0006108652451075613,-0.0012217304902151227
1747275455797473000,14.94647314453125,-0.0006108652451075613,0,0.0006108652451075613
1747275455813470200,14.96247021484375,-0.0006108652451075613,0,-0.0012217304902151227
1747275455829500700,14.978500732421875,-0.0012217304902151227,0,0.0012217304902151227
1747275455845543700,14.994543701171875,-0.0006108652451075613,0.0012217304902151227,-0.0006108652451075613
1747275455861567000,15.01056689453125,0.0006108652451075613,0.0006108652451075613,-0.0006108652451075613
1747275455877579500,15.02657958984375,-0.0012217304902151227,0.0006108652451075613,-0.0012217304902151227
1747275455893591600,15.042591552734375,-0.0012217304902151227,0.0006108652451075613,0
1747275455909620700,15.058620849609374,-0.0006108652451075613,-0.0006108652451075613,-0.001832595793530345
1747275455925660400,15.074660400390625,0,0.0012217304902151227,0
1747275455941688800,15.090688720703126,0,0.001832595793530345,0
1747275455957699300,15.10669921875,0.0006108652451075613,0,0.0012217304902151227
1747275455973695200,15.1226953125,0,0,0
1747275455989727000,15.13872705078125,0,0.0012217304902151227,0.001832595793530345
1747275456005769700,15.154769775390625,0,-0.0006108652451075613,0
1747275456021795800,15.1707958984375,0,0,0.0006108652451075613
1747275456037814500,15.186814453125,-0.0006108652451075613,0,0
1747275456053837000,15.202837158203126,0.0024434609804302454,0.0024434609804302454,0.0006108652451075613
1747275456069869000,15.218869140625,0,0.0012217304902151227,-0.0006108652451075613
1747275456085912000,15.234912109375,0.001832595793530345,0.001832595793530345,-0.0012217304902151227
1747275456101938400,15.2509384765625,0,0.001832595793530345,-0.0012217304902151227
1747275456117950700,15.26695068359375,0,0.01160643994808197,-0.003054326167330146
1747275456133944800,15.28294482421875,0,0.00855211354792118,-0.01038470957428217
1747275456149975800,15.298975830078126,-0.0006108652451075613,-0.0006108652451075613,0.00427605677396059
1747275456166017500,15.315017578125,0.0012217304902151227,-0.0012217304902151227,-0.0006108652451075613
1747275456182050800,15.33105078125,-0.001832595793530345,-0.0012217304902151227,0.0006108652451075613
1747275456198058800,15.347058837890625,-0.003054326167330146,-0.006108652334660292,0.006108652334660292
1747275456214084400,15.36308447265625,0.0012217304902151227,-0.0012217304902151227,0.0012217304902151227
1747275456230117600,15.37911767578125,0,0.006108652334660292,-0.003054326167330146
1747275456246160400,15.395160400390624,0,0.004886921960860491,-0.003054326167330146
1747275456270189600,15.419189453125,-0.0006108652451075613,0.006108652334660292,-0.004886921960860491
1747275456286199000,15.435198974609374,-0.0012217304902151227,-0.001832595793530345,0.0024434609804302454
1747275456302227700,15.451227783203125,0.0012217304902151227,-0.00366519158706069,0.006719517521560192
1747275456318235600,15.467235595703125,-0.0024434609804302454,-0.001832595793530345,0.0006108652451075613
1747275456334288000,15.483287841796875,0.0006108652451075613,0.0012217304902151227,-0.0012217304902151227
1747275456358325500,15.507325439453124,0,0.00366519158706069,-0.001832595793530345
1747275456374352000,15.523351806640624,-0.001832595793530345,0.006108652334660292,-0.00366519158706069
1747275456390387000,15.539386962890624,0,0.0006108652451075613,-0.0006108652451075613
1747275456406431200,15.55543115234375,-0.001832595793530345,-0.00427605677396059,0.004886921960860491
1747275456422457300,15.571457275390625,-0.0006108652451075613,-0.003054326167330146,0.00366519158706069
1747275456438470400,15.587470458984376,0,-0.004886921960860491,0.0024434609804302454
1747275456454469600,15.6034697265625,-0.001832595793530345,0.0012217304902151227,-0.0012217304902151227
1747275456470501600,15.619501708984375,0,0.00855211354792118,-0.00427605677396059
1747275456486542300,15.635542236328124,0.0012217304902151227,0.004886921960860491,-0.003054326167330146
1747275456502567000,15.65156689453125,0.0006108652451075613,0.0012217304902151227,-0.0024434609804302454
1747275456518575600,15.66757568359375,-0.0012217304902151227,0,-0.0012217304902151227
1747275456534607600,15.683607666015625,-0.0012217304902151227,-0.005497787147760391,0.00427605677396059
1747275456550639600,15.6996396484375,0,-0.003054326167330146,0.00366519158706069
1747275456566682600,15.7156826171875,-0.0006108652451075613,0.0012217304902151227,0
1747275456582707700,15.731707763671874,-0.0006108652451075613,0.0024434609804302454,-0.00366519158706069
1747275456598716400,15.74771630859375,-0.0006108652451075613,0.00427605677396059,-0.0006108652451075613
1747275456614710300,15.763710205078125,-0.00366519158706069,0.003054326167330146,0
1747275456630739200,15.7797392578125,-0.0659734457731247,0.0012217304902151227,0.005497787147760391
1747275456646768600,15.7957685546875,-0.6982190012931824,-0.004886921960860491,-0.0024434609804302454
1747275456662791400,15.81179150390625,-0.7641924023628235,-0.0012217304902151227,0.005497787147760391
1747275456678794500,15.82779443359375,-0.35552358627319336,0,0.00733038317412138
1747275456694818800,15.84381884765625,-0.1215621829032898,0.01710422709584236,0.04886921867728233
1747275456710841900,15.859841796875,-0.04764748737215996,-0.03176499158143997,0.19975294172763824
1747275456726879200,15.875879150390626,0.0555887371301651,-0.07941248267889023,0.2376265823841095
1747275456742901800,15.89190185546875,0.24556782841682434,-0.07147123664617538,0.20097467303276062
1747275456758907600,15.90790771484375,0.34086281061172485,-0.00427605677396059,0.1661553531885147
1747275456774905600,15.923905517578126,0.3878994286060333,-0.02871066704392433,0.13927727937698364
1747275456790935600,15.939935546875,0.2919935882091522,0.09712757170200348,0.2681698501110077
1747275456806973700,15.9559736328125,0.19425514340400696,0.07880161702632904,0.413555771112442
1747275456822995200,15.9719951171875,-0.03787364438176155,-0.5027421116828918,0.47280970215797424
1747275456838999000,15.9879990234375,-0.2583959996700287,-1.1081095933914185,0.49296826124191284
1747275456855031800,16.00403173828125,-0.1062905490398407,-1.6994271278381348,0.5204572081565857
1747275456871095800,16.020095703125,0.23029619455337524,-1.938886284828186,0.4337143301963806
1747275456887117600,16.03611767578125,0.21991148591041565,-2.453845739364624,-0.030543262138962746
1747275456903142700,16.052142578125,-0.22602014243602753,-2.8173105716705322,-0.6426302194595337
1747275456919185700,16.068185546875,-0.4202753007411957,-3.051882743835449,-1.2406673431396484
1747275456935178200,16.08417822265625,-0.5626068711280823,-2.911994695663452,-1.623068928718567
1747275456951238700,16.10023876953125,-0.2968805134296417,-3.402519464492798,-1.5204435586929321
1747275456967259100,16.116259033203125,0.4911356568336487,-4.061032295227051,-1.215621829032898
1747275456983284000,16.132283935546877,0.9877691268920898,-4.640743255615234,-1.1270463466644287
1747275456999324000,16.148323974609376,1.0653489828109741,-5.684711933135986,-1.4385876655578613
1747275457015343400,16.16434326171875,0.9669997096061707,-6.3358941078186035,-2.071444034576416
1747275457031362000,16.180362060546877,0.9871582388877869,-6.457456588745117,-2.8845057487487793
1747275457047386000,16.19638623046875,1.244943380355835,-6.608951091766357,-3.357926368713379
1747275457063409700,16.21240966796875,1.2272282838821411,-6.6230010986328125,-3.6890151500701904
1747275457079450000,16.2284501953125,1.06657075881958,-6.803817272186279,-3.7751471996307373
1747275457095444000,16.24444384765625,1.2846496105194092,-6.599177360534668,-3.6896259784698486
1747275457111458300,16.260458251953125,1.7825047969818115,-5.944329738616943,-3.4831535816192627
1747275457127481000,16.276481201171876,2.090380907058716,-5.125770092010498,-3.3212742805480957
1747275457143507000,16.2925068359375,2.1985039710998535,-3.8588356971740723,-3.243694543838501
1747275457159546400,16.30854638671875,2.0476202964782715,-2.4691174030303955,-3.2736268043518066
1747275457175567600,16.324567626953126,1.8509217500686646,-1.2614367008209229,-3.394578218460083
1747275457191630000,16.340630126953126,1.5906931161880493,-1.2015719413757324,-3.4410040378570557
1747275457207653400,16.3566533203125,0.979827880859375,-1.7018705606460571,-3.2705724239349365
1747275457223679200,16.37267919921875,0.32131510972976685,-2.230268955230713,-2.984076738357544
1747275457239721000,16.388720947265625,-0.17470745742321014,-2.813645362854004,-2.6762006282806396
1747275457255715600,16.404715576171874,-0.40622538328170776,-2.7421741485595703,-2.3799309730529785
1747275457271735300,16.4207353515625,-0.23945917189121246,-1.9663752317428589,-2.1875083446502686
1747275457287765000,16.436764892578125,0.2223549485206604,-1.2107349634170532,-1.99447500705719
1747275457303786000,16.452785888671876,0.6102544069290161,-0.523511528968811,-1.8942930698394775
1747275457319829800,16.468829833984376,0.9040805697441101,0.24862214922904968,-1.8002198934555054
1747275457335863000,16.484863037109374,1.0696250200271606,0.7348709106445312,-1.6841554641723633
1747275457351902700,16.50090283203125,1.3280210494995117,1.224173903465271,-1.5167783498764038
1747275457367946800,16.51694677734375,1.5741997957229614,1.368949055671692,-1.3756685256958008
1747275457383970300,16.53297021484375,1.673770785331726,1.3811663389205933,-1.2370021343231201
1747275457399985200,16.548985107421874,1.674992561340332,1.3836097717285156,-1.1484266519546509
1747275457416003300,16.56500341796875,1.6927075386047363,1.4599679708480835,-1.0891727209091187
1747275457432040400,16.58104052734375,1.739133358001709,1.8655824661254883,-1.0128145217895508
1747275457448081400,16.597081298828126,1.9425514936447144,2.0580050945281982,-0.8894197940826416
1747275457464103000,16.61310302734375,2.0384573936462402,1.5656476020812988,-0.4245513379573822
1747275457480140500,16.629140625,1.93766450881958,1.0775662660598755,0.08246681094169617
1747275457496168000,16.64516796875,1.6584991216659546,0.5797111392021179,0.5742133259773254
1747275457512245200,16.661245361328124,1.3750576972961426,0.2932153046131134,0.8539896011352539
1747275457528269000,16.67726904296875,1.1551461219787598,0.39767327904701233,1.0671815872192383
1747275457544286200,16.6932861328125,1.3909401893615723,0.25045475363731384,1.4080443382263184
1747275457560322600,16.709322509765624,1.7189748287200928,0.5546656250953674,1.737911581993103
1747275457576310000,16.72531005859375,1.5448782444000244,0.4917465150356293,1.816102385520935
1747275457592368400,16.741368408203126,1.205847978591919,0.7037167549133301,1.8277088403701782
1747275457608426200,16.75742626953125,0.9083566069602966,0.7110471725463867,1.5241087675094604
1747275457624444000,16.77344384765625,0.645684540271759,1.1349875926971436,0.911410927772522
1747275457640438800,16.789438720703124,0.2376265823841095,1.1068878173828125,-0.07147123664617538
1747275457656468000,16.805468017578125,-0.04948008432984352,0.3732386529445648,-0.6065891981124878
1747275457672508000,16.8215078125,0.1362229436635971,-0.24495697021484375,-0.8008443117141724
1747275457688534300,16.8375341796875,0.5192354321479797,-0.970054030418396,-0.8234463334083557
1747275457704556300,16.853556396484375,1.1930198669433594,-1.5986343622207642,-0.79840087890625
1747275457720594400,16.869594482421874,1.7678439617156982,-1.7556266784667969,-0.7733554244041443
1747275457736585000,16.8855849609375,2.2510383129119873,-1.9040669202804565,-0.8765916228294373
1747275457752564000,16.90156396484375,2.627331495285034,-2.0641136169433594,-1.1197160482406616
1747275457768582100,16.91758203125,2.66337251663208,-2.1539108753204346,-1.3103059530258179
1747275457784602400,16.933602294921876,2.548529863357544,-1.9950858354568481,-1.5448782444000244
1747275457800599600,16.949599609375,2.3573288917541504,-1.9120081663131714,-1.5460999011993408
1747275457816634000,16.965634033203123,2.101987361907959,-1.645671010017395,-1.3811663389205933
1747275457832653000,16.981653076171874,1.8777997493743896,-1.3738359212875366,-1.1624765396118164
1747275457848679400,16.997679443359374,1.5094480514526367,-1.043968677520752,-0.8674286603927612
1747275457864701400,17.013701416015625,1.2406673431396484,-0.7428121566772461,-0.6298020482063293
1747275457880698600,17.02969873046875,1.0781772136688232,-0.44715335965156555,-0.5406157374382019
1747275457896691200,17.045691162109375,1.0103710889816284,-0.26450464129447937,-0.6872233748435974
1747275457912707300,17.061707275390624,0.9327912330627441,-0.24984388053417206,-0.9352346658706665
1747275457928733000,17.07773291015625,0.8759807348251343,-0.3341432809829712,-1.0787880420684814
1747275457944754200,17.093754150390627,0.836885392665863,-0.4196644127368927,-1.0250319242477417
1747275457960752600,17.109752685546876,0.8674286603927612,-0.4398229718208313,-0.8637634515762329
1747275457976739000,17.125739013671875,1.06351637840271,-0.5290092825889587,-1.4019356966018677
1747275457992763100,17.14176318359375,1.0934487581253052,-0.6835582256317139,-1.3298536539077759
1747275458008795400,17.15779541015625,1.1093312501907349,-0.48808133602142334,-1.2296717166900635
1747275458024819200,17.173819091796876,0.9804387092590332,-0.29993483424186707,-1.0971139669418335
1747275458040830500,17.18983056640625,0.817948579788208,-0.23090706765651703,-1.035416603088379
1747275458056822800,17.20582275390625,0.7147123217582703,-0.2718350291252136,-1.0390818119049072
1747275458072878000,17.221878173828124,0.5247332453727722,-0.4740314185619354,-1.017701506614685
1747275458088946000,17.23794580078125,0.2828305959701538,-0.1661553531885147,-1.2846496105194092
1747275458104971500,17.253971435546877,-0.22479841113090515,-0.384845107793808,-1.1869112253189087
1747275458120968700,17.26996875,-0.5015203952789307,-0.35674530267715454,-1.214400053024292
1747275458136974300,17.285974365234374,-0.6163630485534668,-0.22540926933288574,-1.2571606636047363
1747275458152993300,17.3019931640625,-0.42271876335144043,-0.32620203495025635,-1.2999212741851807
1747275458169017000,17.31801708984375,-0.06719517707824707,-0.1459967941045761,-1.291369080543518
1747275458184993300,17.3339931640625,0.07880161702632904,-0.06475171446800232,-1.3115277290344238
1747275458200986400,17.349986328125,-0.03726277872920036,-0.2583959996700287,-1.3616186380386353
1747275458216981200,17.365981201171873,-0.12461651116609573,-0.29565876722335815,-1.4666874408721924
1747275458232999200,17.381999267578124,-0.13072516024112701,-0.29626965522766113,-1.6780468225479126
1747275458249013200,17.39801318359375,-0.06536258012056351,0.9615018963813782,0.3384193480014801
1747275458265037800,17.414037841796876,0.05742133408784866,-0.010995574295520782,0.15821409225463867
1747275458281076700,17.43007666015625,0.06902777403593063,0.12828169763088226,0.12095131725072861
1747275458297066200,17.446066162109375,0.0024434609804302454,-0.0555887371301651,-0.12339477986097336
1747275458313194000,17.462194091796874,0.018325956538319588,0.02871066704392433,0.07513642311096191
1747275458337199900,17.486199951171876,0.012828170321881771,0.016493361443281174,0.042760565876960754
1747275458353208000,17.5022080078125,-0.003054326167330146,0.015882495790719986,-0.004886921960860491
1747275458369209600,17.518209716796875,-0.00366519158706069,-0.006719517521560192,-0.022602014243602753
1747275458385234400,17.534234375,0.001832595793530345,0.007941247895359993,0.00855211354792118
1747275458401247000,17.5502470703125,-0.0012217304902151227,0.012217304669320583,0.0006108652451075613
1747275458417277700,17.566277587890625,-0.01466076634824276,0.006719517521560192,-0.01710422709584236
1747275458433305000,17.58230517578125,-0.0757472887635231,0.0555887371301651,-0.07330382615327835
1747275458449325300,17.5983251953125,-0.10873401165008545,0.02076941914856434,-0.10690141469240189
1747275458465349000,17.61434912109375,-0.11728613078594208,-0.02626720629632473,-0.18875735998153687
1747275458481361700,17.630361572265624,-0.12522737681865692,-0.13439035415649414,-0.33597588539123535
1747275458497395200,17.646395263671874,-0.04337143152952194,0.048258353024721146,-0.28099802136421204
1747275458513427700,17.662427734375,0.12034045159816742,0.042760565876960754,-0.3585779070854187
1747275458529433600,17.67843359375,-0.08674286305904388,0.3188716471195221,-0.41233405470848083
1747275458545462000,17.6944619140625,-0.009773843921720982,-0.03420845419168472,-0.5473352670669556
1747275458561500400,17.71050048828125,-0.08918632566928864,0.14782938361167908,-0.4740314185619354
1747275458577511000,17.726510986328126,-0.025656340643763542,-0.08307767659425735,-0.7134906053543091
1747275458593572000,17.742572021484374,0.018936822190880775,0.15577064454555511,-0.5571091175079346
1747275458609583000,17.7585830078125,0.07635815441608429,-0.02932153269648552,-0.40683624148368835
1747275458625609500,17.774609375,-0.04092797264456749,0.2687807083129883,-0.3836233615875244
1747275458641649400,17.7906494140625,0.01466076634824276,0.048258353024721146,-0.24190263450145721
1747275458657658400,17.806658447265626,-0.08674286305904388,-0.0403171069920063,0.018936822190880775
1747275458673721600,17.8227216796875,0.009162978269159794,-0.015271631069481373,0.02687807008624077
1747275458689729500,17.8387294921875,-0.0006108652451075613,-0.00427605677396059,-0.003054326167330146
1747275458705758700,17.8547587890625,0.0012217304902151227,-0.005497787147760391,-0.01038470957428217
1747275458721756200,17.870756103515625,0,0.001832595793530345,-0.0024434609804302454
1747275458737793000,17.88679296875,0.0012217304902151227,0.0012217304902151227,0.006108652334660292
1747275458753825500,17.902825439453125,-0.001832595793530345,0.003054326167330146,0.003054326167330146
1747275458769859800,17.91885986328125,-0.001832595793530345,0.0006108652451075613,-0.0012217304902151227
1747275458785885400,17.934885498046874,0.00427605677396059,0.007941247895359993,-0.00366519158706069
1747275458801897700,17.950897705078123,0.02871066704392433,0.01771509274840355,-0.009773843921720982
1747275458817934600,17.9669345703125,0.02871066704392433,0.02871066704392433,-0.01771509274840355
1747275458833971500,17.982971435546876,0.018325956538319588,0.01771509274840355,-0.012828170321881771
1747275458849975000,17.99897509765625,0.018936822190880775,0.021991148591041565,-0.010995574295520782
1747275458865998800,18.014998779296874,0.022602014243602753,0.02687807008624077,-0.016493361443281174
1747275458882015200,18.03101513671875,0.039706241339445114,0.02932153269648552,-0.02687807008624077
1747275458898049800,18.0470498046875,0.02932153269648552,0.030543262138962746,-0.03787364438176155
1747275458914082300,18.063082275390624,0.024434609338641167,0.016493361443281174,-0.05803219974040985
1747275458930125800,18.079125732421875,0.02932153269648552,0.0708603709936142,-0.08185594528913498
1747275458946154200,18.095154296875,0.02015855349600315,0.09346238523721695,-0.0708603709936142
1747275458962173200,18.111173095703126,-0.004886921960860491,0.06230825558304787,-0.0403171069920063
1747275458978213400,18.12721337890625,-0.001832595793530345,0.00855211354792118,-0.005497787147760391
1747275458994249700,18.143249755859376,-0.0012217304902151227,0.00366519158706069,-0.0006108652451075613
1747275459010276900,18.15927685546875,-0.001832595793530345,0.007941247895359993,-0.003054326167330146
1747275459026308000,18.17530810546875,-0.0006108652451075613,0.012217304669320583,-0.005497787147760391
1747275459042328800,18.191328857421876,0.0006108652451075613,-0.0024434609804302454,-0.0012217304902151227
1747275459058395100,18.20739501953125,0.0024434609804302454,-0.009162978269159794,0.004886921960860491
1747275459074426000,18.223426025390626,0.0006108652451075613,-0.0006108652451075613,0.001832595793530345
1747275459090483700,18.239483642578126,-0.0024434609804302454,0.005497787147760391,-0.0006108652451075613
1747275459106509600,18.255509521484374,-0.001832595793530345,0.010995574295520782,-0.0024434609804302454
1747275459122523600,18.271523681640623,-0.0012217304902151227,0.009773843921720982,-0.004886921960860491
1747275459138556700,18.287556640625,0,0.003054326167330146,0
1747275459154592000,18.303592041015627,-0.0006108652451075613,-0.0006108652451075613,0.0012217304902151227
1747275459170599000,18.319598876953126,-0.0006108652451075613,0.0024434609804302454,0.0012217304902151227
1747275459186625300,18.335625244140626,0.001832595793530345,-0.004886921960860491,0.00366519158706069
1747275459202635300,18.35163525390625,0.0006108652451075613,0.00366519158706069,-0.0024434609804302454
1747275459218673400,18.36767333984375,-0.0006108652451075613,0.003054326167330146,-0.005497787147760391
1747275459234706400,18.38370654296875,-0.0012217304902151227,0.0006108652451075613,0.0006108652451075613
1747275459250721000,18.399720947265624,-0.0012217304902151227,0.0012217304902151227,0.0024434609804302454
1747275459266748000,18.415747802734376,0,0.0024434609804302454,-0.0024434609804302454
1747275459282758700,18.431758544921873,0.0006108652451075613,-0.001832595793530345,0
1747275459298794000,18.4477939453125,0,-0.0006108652451075613,-0.0012217304902151227
1747275459314824000,18.463823974609376,0,0,0
1747275459330828300,18.479828369140623,-0.0024434609804302454,0.001832595793530345,0
1747275459346885600,18.4958857421875,-0.0012217304902151227,0.0012217304902151227,-0.0006108652451075613
1747275459362901200,18.5119013671875,0,0.0012217304902151227,-0.001832595793530345
1747275459378939400,18.527939453125,0,-0.0006108652451075613,-0.0006108652451075613
1747275459394972700,18.54397265625,-0.001832595793530345,-0.0006108652451075613,-0.0006108652451075613
1747275459410976500,18.5599765625,0,0.0006108652451075613,-0.0006108652451075613
1747275459427006500,18.57600634765625,0,0.0024434609804302454,-0.0012217304902151227
1747275459443024100,18.592024169921874,-0.0006108652451075613,0.0024434609804302454,-0.0006108652451075613
1747275459459058000,18.608057861328124,0.0006108652451075613,0.0006108652451075613,0.0006108652451075613
1747275459475091500,18.624091552734374,-0.0012217304902151227,0.0006108652451075613,-0.0006108652451075613
1747275459491099100,18.64009912109375,-0.0012217304902151227,-0.0006108652451075613,0
1747275459507128000,18.656128173828126,0.0006108652451075613,0.0012217304902151227,0
1747275459523145700,18.672145751953124,0,0.0012217304902151227,-0.0012217304902151227
1747275459539208200,18.688208251953125,-0.0012217304902151227,0.0024434609804302454,0
1747275459555238000,18.70423779296875,-0.0012217304902151227,0.0024434609804302454,0
1747275459571251000,18.7202509765625,-0.0012217304902151227,0,0.0006108652451075613
1747275459587277000,18.736277099609374,0,0.0006108652451075613,-0.0006108652451075613
1747275459603292400,18.75229248046875,0.0006108652451075613,0,-0.0006108652451075613
1747275459619330300,18.768330322265626,0,0.0012217304902151227,0
1747275459635367700,18.78436767578125,0.0012217304902151227,0.0012217304902151227,-0.0012217304902151227
1747275459651379000,18.80037890625,-0.0006108652451075613,0.0012217304902151227,-0.0006108652451075613
1747275459667408000,18.816407958984374,-0.0006108652451075613,0.0006108652451075613,-0.0006108652451075613
1747275459683422000,18.832421875,0.001832595793530345,0.0012217304902151227,0
1747275459699462100,18.848462158203127,0,0,-0.0012217304902151227
1747275459715497200,18.864497314453125,-0.0006108652451075613,0.0006108652451075613,0.0006108652451075613
1747275459731523000,18.880523193359377,-0.0006108652451075613,0.001832595793530345,0.0006108652451075613
1747275459747553500,18.896553466796874,0,0.0006108652451075613,-0.0012217304902151227
1747275459763570700,18.91257080078125,-0.0006108652451075613,0.0024434609804302454,-0.0012217304902151227
1747275459779610400,18.9286103515625,0,0.0012217304902151227,-0.0012217304902151227
1747275459795648800,18.944648681640626,-0.0006108652451075613,-0.0006108652451075613,0.0012217304902151227
1747275459811657700,18.96065771484375,0.0012217304902151227,0.0006108652451075613,-0.0006108652451075613
1747275459827722800,18.97672265625,0,0,0
1747275459843741000,18.992740966796877,0,0.0006108652451075613,0.0006108652451075613
1747275459859776500,19.008776611328123,0,0.0006108652451075613,-0.0006108652451075613
1747275459875811000,19.02481103515625,-0.001832595793530345,0.001832595793530345,-0.001832595793530345
1747275459891831300,19.040831298828124,-0.0012217304902151227,0.0006108652451075613,0.0006108652451075613
1747275459907861500,19.056861572265625,0.0006108652451075613,0,0
1747275459923881700,19.0728818359375,-0.0012217304902151227,0.001832595793530345,0.0006108652451075613
1747275459939920000,19.088919921875,-0.0012217304902151227,0.0006108652451075613,-0.0012217304902151227
1747275459955956000,19.1049560546875,0,0.0012217304902151227,-0.0006108652451075613
1747275459971961600,19.120961669921876,0,0.0012217304902151227,-0.001832595793530345
1747275459987988200,19.13698828125,-0.0012217304902151227,0.0012217304902151227,-0.0006108652451075613
1747275460004001300,19.153001220703125,0.0006108652451075613,0.0006108652451075613,0.0006108652451075613
1747275460020068600,19.169068603515626,-0.0006108652451075613,0.0006108652451075613,0.0006108652451075613
1747275460036108300,19.1851083984375,-0.0006108652451075613,0.0006108652451075613,0
1747275460052137500,19.201137451171874,0,0.001832595793530345,0
1747275460068164000,19.2171640625,-0.0012217304902151227,0.0012217304902151227,0
1747275460084178000,19.233177978515624,0.0006108652451075613,0.001832595793530345,0.0006108652451075613
1747275460100214000,19.249214111328126,0.0006108652451075613,0.0006108652451075613,0
1747275460116243700,19.26524365234375,0.001832595793530345,0.0024434609804302454,0
1747275460132248800,19.281248779296874,0.0006108652451075613,0.0012217304902151227,-0.0006108652451075613
1747275460148278000,19.297278076171875,0,0.0012217304902151227,-0.0006108652451075613
1747275460164299000,19.313299072265625,0,0.0006108652451075613,-0.0006108652451075613
1747275460180336600,19.329336669921876,0.0006108652451075613,0.0012217304902151227,0.0006108652451075613
1747275460196372200,19.345372314453126,-0.0006108652451075613,0.001832595793530345,-0.0012217304902151227
1747275460212397300,19.361397216796874,-0.0006108652451075613,0.0024434609804302454,0
1747275460228427000,19.377427001953127,-0.0012217304902151227,0,-0.0006108652451075613
1747275460244440600,19.393440673828124,0.0006108652451075613,0.0006108652451075613,-0.0006108652451075613
1747275460260476700,19.4094765625,0.0012217304902151227,-0.0012217304902151227,-0.0012217304902151227
1747275460276510500,19.425510498046876,0,0.001832595793530345,-0.0006108652451075613
1747275460292515600,19.441515625,-0.0006108652451075613,0.001832595793530345,-0.0012217304902151227
1747275460308574000,19.457573974609375,0,0.0012217304902151227,-0.001832595793530345
1747275460324588000,19.473588134765624,0.0006108652451075613,0.0012217304902151227,0
1747275460340644000,19.48964404296875,-0.001832595793530345,0.0006108652451075613,0.0006108652451075613
1747275460356674300,19.50567431640625,0,0.0006108652451075613,0.0006108652451075613
1747275460372701700,19.52170166015625,0.0012217304902151227,-0.0006108652451075613,-0.0006108652451075613
1747275460388728000,19.53772802734375,0.0006108652451075613,0.0006108652451075613,-0.0012217304902151227
1747275460404744400,19.553744384765626,-0.0006108652451075613,0.0012217304902151227,0.0012217304902151227
1747275460420779000,19.569779052734376,-0.0012217304902151227,0.0024434609804302454,-0.0006108652451075613
1747275460436812000,19.58581201171875,0.0006108652451075613,0.0024434609804302454,0
1747275460452818400,19.601818359375,-0.0012217304902151227,0.0012217304902151227,0
1747275460468847000,19.61784716796875,-0.0006108652451075613,0,-0.0006108652451075613
1747275460484859100,19.633859130859374,0.0006108652451075613,0.0012217304902151227,-0.0006108652451075613
1747275460500932600,19.6499326171875,0,0,-0.0012217304902151227
1747275460516969000,19.665968994140623,0.0012217304902151227,0.0006108652451075613,-0.0006108652451075613
1747275460533000400,19.68200048828125,-0.0012217304902151227,0.0012217304902151227,0
1747275460549024000,19.69802392578125,-0.0006108652451075613,0.0012217304902151227,-0.0024434609804302454
1747275460565039600,19.71403955078125,0.0006108652451075613,0.0006108652451075613,0.0006108652451075613
1747275460581084000,19.730083984375,-0.0006108652451075613,0,-0.0006108652451075613
1747275460597110800,19.74611083984375,0,-0.0006108652451075613,-0.001832595793530345
1747275460613117000,19.762116943359374,0.0006108652451075613,0,0
1747275460629146400,19.778146484375,0,0,0
1747275460645158100,19.794158203125,0,-0.0006108652451075613,-0.0006108652451075613
1747275460661188400,19.810188232421876,0.001832595793530345,-0.0006108652451075613,-0.0012217304902151227
1747275460677225700,19.826225830078126,0.0006108652451075613,0.001832595793530345,0.0006108652451075613
1747275460693289000,19.8422890625,0,0,-0.001832595793530345
1747275460709319400,19.8583193359375,0,0,-0.0012217304902151227
1747275460725334500,19.87433447265625,0.0024434609804302454,0.0006108652451075613,0.0006108652451075613
1747275460741371000,19.890370849609376,0,0.0006108652451075613,-0.001832595793530345
1747275460757407200,19.9064072265625,0.0006108652451075613,0,-0.0012217304902151227
1747275460773413600,19.92241357421875,0,0.0012217304902151227,-0.0012217304902151227
1747275460789482500,19.938482421875,0,0.0006108652451075613,-0.0006108652451075613
1747275460805498000,19.954498046875,-0.0006108652451075613,-0.0012217304902151227,0
1747275460821532700,19.97053271484375,0.001832595793530345,0,-0.001832595793530345
1747275460837563100,19.986563232421876,-0.0006108652451075613,0.0006108652451075613,-0.0012217304902151227
1747275460853591800,20.002591796875,0,0.0006108652451075613,-0.0012217304902151227
1747275460869617700,20.01861767578125,-0.0012217304902151227,0.0012217304902151227,-0.0012217304902151227
1747275460885633800,20.0346337890625,0.0006108652451075613,-0.0012217304902151227,-0.0006108652451075613
1747275460901669000,20.050669189453124,0.001832595793530345,0.0006108652451075613,-0.0006108652451075613
1747275460917705500,20.06670556640625,0.0012217304902151227,0,0
1747275460933710000,20.0827099609375,0,-0.0006108652451075613,-0.0006108652451075613
1747275460949733000,20.098733154296873,0.0006108652451075613,0.0012217304902151227,-0.001832595793530345
1747275460965743600,20.11474365234375,0,0.0006108652451075613,-0.001832595793530345
1747275460981828400,20.130828369140627,-0.0006108652451075613,0,-0.0006108652451075613
1747275460997864400,20.146864501953125,0,0.0006108652451075613,-0.001832595793530345
1747275461013909200,20.1629091796875,-0.0006108652451075613,-0.001832595793530345,-0.0006108652451075613
1747275461029936600,20.1789365234375,0.0006108652451075613,0,-0.0012217304902151227
1747275461045958100,20.194958251953125,0.0012217304902151227,-0.0006108652451075613,-0.0006108652451075613
1747275461061992000,20.210991943359375,-0.0006108652451075613,0.0012217304902151227,0
1747275461078021400,20.227021484375,-0.0006108652451075613,0.0006108652451075613,0
1747275461094025700,20.243025634765626,0.0006108652451075613,0.001832595793530345,-0.0012217304902151227
1747275461110049300,20.25904931640625,0.0024434609804302454,0,-0.001832595793530345
1747275461126062000,20.27506201171875,0,0,-0.0006108652451075613
1747275461142096000,20.291095947265624,0.0006108652451075613,0.0012217304902151227,-0.0006108652451075613
1747275461158124500,20.30712451171875,0.0012217304902151227,0.001832595793530345,0
1747275461174214000,20.3232138671875,0.0012217304902151227,0,0.0006108652451075613
1747275461190238200,20.33923828125,0.0006108652451075613,0.0006108652451075613,-0.0006108652451075613
1747275461206251000,20.3552509765625,-0.0006108652451075613,0.0006108652451075613,-0.0012217304902151227
1747275461222284000,20.371283935546874,0.0012217304902151227,0,-0.001832595793530345
1747275461238316800,20.38731689453125,0.0006108652451075613,0.0006108652451075613,-0.0006108652451075613
1747275461254325000,20.403324951171875,0.0012217304902151227,0,0
1747275461270387700,20.4193876953125,0.0006108652451075613,-0.0006108652451075613,-0.001832595793530345
1747275461286401800,20.43540185546875,0,0.0006108652451075613,-0.001832595793530345
1747275461302435000,20.45143505859375,-0.0006108652451075613,0,0
1747275461318467800,20.4674677734375,0.0012217304902151227,0.0006108652451075613,0
1747275461334512600,20.4835126953125,-0.0006108652451075613,0,0
1747275461350537200,20.499537109375,0.0006108652451075613,0.0006108652451075613,-0.0006108652451075613
1747275461366548500,20.515548583984376,0.001832595793530345,-0.0012217304902151227,-0.0012217304902151227
1747275461382584300,20.531584228515626,-0.001832595793530345,0.0006108652451075613,0.0006108652451075613
1747275461398617900,20.547617919921876,0.0006108652451075613,-0.001832595793530345,-0.0012217304902151227
1747275461414623500,20.56362353515625,0,0.0006108652451075613,-0.0006108652451075613
1747275461430649900,20.57964990234375,0,0,0
1747275461446660400,20.595660400390624,0.001832595793530345,0.0012217304902151227,-0.0006108652451075613
1747275461462729700,20.611729736328126,0.0006108652451075613,0.0006108652451075613,0
1747275461478761500,20.627761474609375,0,-0.0006108652451075613,0
1747275461494815000,20.64381494140625,0,0,-0.0012217304902151227
1747275461510840000,20.659840087890625,0.0006108652451075613,0.0006108652451075613,0
1747275461526853400,20.675853271484375,-0.0006108652451075613,0,-0.0006108652451075613
1747275461542889500,20.691889404296877,0.0012217304902151227,0.0012217304902151227,0
1747275461558921200,20.707921142578126,0.0006108652451075613,0,0
1747275461574923000,20.723923095703125,0,0.0012217304902151227,-0.0006108652451075613
1747275461590949600,20.73994970703125,0.0006108652451075613,0.0006108652451075613,0
1747275461606962000,20.7559619140625,0.0006108652451075613,0.0012217304902151227,-0.0006108652451075613
1747275461622995700,20.77199560546875,0.0006108652451075613,0,0
1747275461639028200,20.7880283203125,0.0006108652451075613,0.0006108652451075613,0.0006108652451075613
1747275461655035400,20.804035400390624,0.0006108652451075613,0,-0.0006108652451075613
1747275461671064000,20.82006396484375,0.001832595793530345,0,0
1747275461687096800,20.836096923828126,0.0006108652451075613,0.0006108652451075613,-0.0012217304902151227
1747275461703123500,20.85212353515625,0,0,0.0012217304902151227
1747275461719147000,20.86814697265625,0,-0.0012217304902151227,0
1747275461735153700,20.884153564453126,0,-0.0012217304902151227,0
1747275461751214300,20.90021435546875,0,0.0012217304902151227,0
1747275461767227100,20.91622705078125,0.0012217304902151227,-0.0006108652451075613,-0.0012217304902151227
1747275461783263500,20.932263427734377,-0.0006108652451075613,0.0006108652451075613,-0.0006108652451075613
1747275461799298800,20.948298828125,-0.0006108652451075613,0,-0.0006108652451075613
1747275461815303400,20.964303466796874,-0.0006108652451075613,0.0006108652451075613,0
1747275461831330600,20.98033056640625,0,0,-0.0006108652451075613
1747275461847344000,20.99634423828125,0.0006108652451075613,0.0006108652451075613,0
1747275461863380200,21.012380126953126,0.0006108652451075613,0.001832595793530345,-0.0012217304902151227
1747275461879413000,21.0284130859375,0,0,0.0006108652451075613
1747275461895419100,21.044419189453127,0.0006108652451075613,0,0.0012217304902151227
1747275461911447000,21.060447021484375,-0.0012217304902151227,-0.0006108652451075613,0.0006108652451075613
1747275461927462000,21.0764619140625,0.0012217304902151227,-0.0006108652451075613,0
1747275461943502800,21.0925029296875,0.001832595793530345,-0.0006108652451075613,0.0006108652451075613
1747275461959535600,21.10853564453125,0.0006108652451075613,0,0.0006108652451075613
1747275461975549000,21.124548828125,0.0012217304902151227,0.0006108652451075613,0.0006108652451075613
1747275461991577000,21.1405771484375,0.001832595793530345,0,0.0012217304902151227
1747275462007595000,21.156594970703125,0.0006108652451075613,0.0006108652451075613,0
1747275462023630300,21.17263037109375,-0.0006108652451075613,0,0
1747275462039668200,21.188668212890626,0.001832595793530345,-0.0006108652451075613,0.0012217304902151227
1747275462055679200,21.20467919921875,0.0012217304902151227,0,-0.0012217304902151227
