time,seconds_elapsed,z,y,x
1747275440922549500,0.071549560546875,0.006108652334660292,0.0024434609804302454,-0.0024434609804302454
1747275440938580500,0.08758056640625,0.006108652334660292,0.0024434609804302454,-0.0024434609804302454
1747275440954599700,0.103599609375,0.006108652334660292,0.0024434609804302454,-0.0024434609804302454
1747275440970613500,0.119613525390625,0.006108652334660292,0.0024434609804302454,-0.0024434609804302454
1747275440986641700,0.1356416015625,0.006108652334660292,0.0024434609804302454,-0.0024434609804302454
1747275441002682000,0.15168212890625,0.006108652334660292,0.0024434609804302454,-0.0024434609804302454
1747275441018718700,0.16771875,0.006108652334660292,0.0024434609804302454,-0.0024434609804302454
1747275441034780400,0.183780517578125,0.00733038317412138,0.0024434609804302454,-0.0024434609804302454
1747275441050783500,0.199783447265625,0.00733038317412138,0.00366519158706069,-0.00427605677396059
1747275441066833700,0.215833740234375,0.006719517521560192,0.00366519158706069,-0.0024434609804302454
1747275441082866200,0.2318662109375,0.006719517521560192,0.00366519158706069,-0.0012217304902151227
1747275441098901800,0.24790185546875,0.006719517521560192,0.003054326167330146,-0.00366519158706069
1747275441114923500,0.263923583984375,0.004886921960860491,0.001832595793530345,-0.00427605677396059
1747275441130927000,0.279927001953125,0.007941247895359993,0.003054326167330146,-0.00427605677396059
1747275441146961700,0.295961669921875,0.006108652334660292,0.0024434609804302454,-0.00366519158706069
1747275441162955300,0.311955322265625,0.006108652334660292,0.0024434609804302454,-0.00366519158706069
1747275441178993000,0.327992919921875,0.005497787147760391,0.001832595793530345,-0.003054326167330146
1747275441195058000,0.344057861328125,0.006719517521560192,0.0024434609804302454,-0.00366519158706069
1747275441211060500,0.360060546875,0.00733038317412138,0.0024434609804302454,-0.00366519158706069
1747275441227089000,0.3760888671875,0.006108652334660292,0.003054326167330146,-0.003054326167330146
1747275441243128300,0.39212841796875,0.006719517521560192,0.001832595793530345,-0.0024434609804302454
1747275441259196000,0.40819580078125,0.006108652334660292,0.001832595793530345,-0.00366519158706069
1747275441275253200,0.424253173828125,0.00733038317412138,0.001832595793530345,-0.00427605677396059
1747275441291257300,0.44025732421875,0.00733038317412138,0.003054326167330146,-0.00366519158706069
1747275441307289000,0.4562890625,0.006719517521560192,0.0024434609804302454,-0.003054326167330146
1747275441323316200,0.472316162109375,0.005497787147760391,0.0024434609804302454,-0.003054326167330146
1747275441339345400,0.488345458984375,0.005497787147760391,0.00366519158706069,-0.00427605677396059
1747275441355370200,0.504370361328125,0.007941247895359993,0.00366519158706069,-0.001832595793530345
1747275441371372800,0.520372802734375,0.006719517521560192,0.00366519158706069,-0.001832595793530345
1747275441387399400,0.5363994140625,0.006719517521560192,0.003054326167330146,-0.0024434609804302454
1747275441403397000,0.552397216796875,0.00733038317412138,0.0012217304902151227,-0.003054326167330146
1747275441419435800,0.568435791015625,0.00733038317412138,0.003054326167330146,-0.00427605677396059
1747275441435501800,0.584501708984375,0.006108652334660292,0.003054326167330146,-0.003054326167330146
1747275441451535600,0.60053564453125,0.005497787147760391,0.0024434609804302454,-0.00366519158706069
1747275441467576000,0.616576171875,0.00733038317412138,0.001832595793530345,-0.0024434609804302454
1747275441483616000,0.632615966796875,0.006719517521560192,0.00366519158706069,-0.00427605677396059
1747275441499652600,0.648652587890625,0.005497787147760391,0.001832595793530345,-0.0024434609804302454
1747275441515719700,0.6647197265625,0.006108652334660292,0.001832595793530345,-0.003054326167330146
1747275441531724300,0.680724365234375,0.007941247895359993,0.0024434609804302454,-0.00366519158706069
1747275441547773200,0.696773193359375,0.00733038317412138,0.00366519158706069,-0.00366519158706069
1747275441563809800,0.712809814453125,0.006719517521560192,0.0012217304902151227,-0.0024434609804302454
1747275441579850500,0.7288505859375,0.006108652334660292,0.0024434609804302454,-0.00427605677396059
1747275441595874600,0.74487451171875,0.00733038317412138,0.0024434609804302454,-0.00366519158706069
1747275441611877400,0.76087744140625,0.006719517521560192,0.001832595793530345,-0.00366519158706069
1747275441627921700,0.776921630859375,0.007941247895359993,0.0024434609804302454,-0.001832595793530345
1747275441643978800,0.792978759765625,0.00733038317412138,0.003054326167330146,-0.00427605677396059
1747275441660015000,0.80901513671875,0.006108652334660292,0.001832595793530345,-0.004886921960860491
1747275441676079000,0.8250791015625,0.006719517521560192,0.001832595793530345,-0.004886921960860491
1747275441692078800,0.841078857421875,0.00733038317412138,0.0012217304902151227,-0.003054326167330146
1747275441708103400,0.857103515625,0.005497787147760391,0.0024434609804302454,-0.003054326167330146
1747275441724140500,0.873140625,0.005497787147760391,0.003054326167330146,-0.0012217304902151227
1747275441740190000,0.88918994140625,0.00733038317412138,0.001832595793530345,-0.003054326167330146
1747275441756257000,0.905257080078125,0.006108652334660292,0.001832595793530345,-0.00366519158706069
1747275441772262100,0.92126220703125,0.006719517521560192,0.001832595793530345,-0.00366519158706069
1747275441788308700,0.937308837890625,0.005497787147760391,0.003054326167330146,-0.003054326167330146
1747275441804345600,0.953345703125,0.006719517521560192,0.0012217304902151227,-0.004886921960860491
1747275441820384300,0.96938427734375,0.006719517521560192,0.003054326167330146,-0.0024434609804302454
1747275441836408800,0.985408935546875,0.005497787147760391,0.003054326167330146,-0.00427605677396059
1747275441852409900,1.001409912109375,0.006719517521560192,0.00366519158706069,-0.005497787147760391
1747275441868436500,1.0174365234375,0.006719517521560192,0.003054326167330146,-0.004886921960860491
1747275441884431600,1.033431640625,0.006719517521560192,0.003054326167330146,-0.00366519158706069
1747275441900472300,1.049472412109375,0.006719517521560192,0.0006108652451075613,-0.004886921960860491
1747275441916536800,1.065536865234375,0.006108652334660292,0.003054326167330146,-0.0024434609804302454
1747275441932565000,1.08156494140625,0.006108652334660292,0.003054326167330146,-0.00427605677396059
1747275441948611000,1.097611083984375,0.00733038317412138,0.0024434609804302454,-0.003054326167330146
1747275441964649200,1.113649169921875,0.00733038317412138,0.001832595793530345,-0.00427605677396059
1747275441980686600,1.1296865234375,0.00733038317412138,0.003054326167330146,-0.00427605677396059
1747275441996757800,1.1457578125,0.004886921960860491,0.001832595793530345,-0.00366519158706069
1747275442012767200,1.161767333984375,0.00733038317412138,0.001832595793530345,-0.0024434609804302454
1747275442028839000,1.1778388671875,0.005497787147760391,0.003054326167330146,-0.00366519158706069
1747275442044876500,1.19387646484375,0.00733038317412138,0.0024434609804302454,-0.003054326167330146
1747275442060914000,1.209913818359375,0.006108652334660292,0.0024434609804302454,-0.00427605677396059
1747275442076932600,1.2259326171875,0.005497787147760391,0.0024434609804302454,-0.00427605677396059
1747275442092931000,1.24193115234375,0.006108652334660292,0.001832595793530345,-0.00427605677396059
1747275442108981500,1.2579814453125,0.006108652334660292,0.001832595793530345,-0.00427605677396059
1747275442124976000,1.27397607421875,0.006108652334660292,0.001832595793530345,-0.00366519158706069
1747275442141015300,1.290015380859375,0.006719517521560192,0.001832595793530345,-0.0024434609804302454
1747275442157075200,1.3060751953125,0.006719517521560192,0.00366519158706069,-0.00366519158706069
1747275442173074400,1.322074462890625,0.004886921960860491,0.003054326167330146,-0.003054326167330146
1747275442189102300,1.338102294921875,0.004886921960860491,0.003054326167330146,-0.003054326167330146
1747275442205138700,1.354138671875,0.006108652334660292,0.00427605677396059,-0.00427605677396059
1747275442221217300,1.37021728515625,0.00733038317412138,0.0024434609804302454,-0.004886921960860491
1747275442237286400,1.386286376953125,0.004886921960860491,0.00366519158706069,-0.006719517521560192
1747275442253290500,1.40229052734375,0.005497787147760391,0.00366519158706069,-0.00733038317412138
1747275442269348000,1.41834814453125,0.006719517521560192,0.003054326167330146,-0.007941247895359993
1747275442285384200,1.43438427734375,0.00733038317412138,0.0024434609804302454,-0.00733038317412138
1747275442301422300,1.45042236328125,0.005497787147760391,0.0024434609804302454,-0.006108652334660292
1747275442317443600,1.466443603515625,0.006719517521560192,0.00366519158706069,-0.004886921960860491
1747275442333447000,1.482447021484375,0.006108652334660292,0.0012217304902151227,-0.003054326167330146
1747275442349471500,1.498471435546875,0.007941247895359993,0.001832595793530345,-0.001832595793530345
1747275442365461800,1.514461669921875,0.00733038317412138,0.001832595793530345,-0.003054326167330146
1747275442381498600,1.53049853515625,0.006719517521560192,0.0024434609804302454,-0.0024434609804302454
1747275442397562400,1.546562255859375,0.006108652334660292,0.004886921960860491,-0.003054326167330146
1747275442413588200,1.562588134765625,0.006719517521560192,0.003054326167330146,-0.00427605677396059
1747275442429643300,1.578643310546875,0.00733038317412138,0.003054326167330146,-0.00427605677396059
1747275442445683700,1.59468359375,0.006719517521560192,0.001832595793530345,-0.003054326167330146
1747275442461725400,1.610725341796875,0.006108652334660292,0.001832595793530345,-0.0024434609804302454
1747275442477793800,1.626793701171875,0.006719517521560192,0.003054326167330146,-0.003054326167330146
1747275442493801000,1.642801025390625,0.00733038317412138,0.003054326167330146,-0.003054326167330146
1747275442509836800,1.6588369140625,0.006108652334660292,0.0012217304902151227,-0.00366519158706069
1747275442525877800,1.674877685546875,0.005497787147760391,0.003054326167330146,-0.00427605677396059
1747275442541922000,1.690922119140625,0.007941247895359993,0.0024434609804302454,-0.00427605677396059
1747275442557988900,1.70698876953125,0.004886921960860491,0.0024434609804302454,-0.003054326167330146
1747275442573991700,1.72299169921875,0.006108652334660292,0.0024434609804302454,-0.001832595793530345
1747275442590056400,1.739056396484375,0.006108652334660292,0.001832595793530345,-0.003054326167330146
1747275442606057500,1.755057373046875,0.006719517521560192,0.0024434609804302454,-0.00366519158706069
1747275442622100700,1.771100830078125,0.004886921960860491,0.0024434609804302454,-0.00366519158706069
1747275442638170000,1.787170166015625,0.00733038317412138,0.003054326167330146,-0.004886921960860491
1747275442654195500,1.803195556640625,0.006719517521560192,0.001832595793530345,-0.00427605677396059
1747275442670220500,1.819220458984375,0.006719517521560192,0.0024434609804302454,-0.00427605677396059
1747275442686257400,1.83525732421875,0.00733038317412138,0.0024434609804302454,-0.00366519158706069
1747275442702294000,1.8512939453125,0.006719517521560192,0.00427605677396059,-0.001832595793530345
1747275442718362600,1.867362548828125,0.006719517521560192,0.003054326167330146,-0.0024434609804302454
1747275442734371300,1.883371337890625,0.006108652334660292,0.003054326167330146,-0.003054326167330146
1747275442750489300,1.8994892578125,0.006108652334660292,0.0024434609804302454,-0.004886921960860491
1747275442766528300,1.9155283203125,0.006719517521560192,0.00427605677396059,-0.00366519158706069
1747275442782572500,1.931572509765625,0.005497787147760391,0.003054326167330146,-0.003054326167330146
1747275442798601500,1.9476015625,0.00733038317412138,0.0012217304902151227,-0.004886921960860491
1747275442814608600,1.963608642578125,0.004886921960860491,0.001832595793530345,-0.001832595793530345
1747275442830636300,1.97963623046875,0.005497787147760391,0.003054326167330146,-0.003054326167330146
1747275442846636000,1.995635986328125,0.006719517521560192,0.001832595793530345,-0.00427605677396059
1747275442862678000,2.011677978515625,0.006108652334660292,0.001832595793530345,-0.001832595793530345
1747275442878747600,2.02774755859375,0.006719517521560192,0.001832595793530345,-0.003054326167330146
1747275442894750500,2.04375048828125,0.005497787147760391,0.0024434609804302454,-0.00427605677396059
1747275442910771500,2.059771484375,0.006719517521560192,0.0024434609804302454,-0.0024434609804302454
1747275442926810000,2.07581005859375,0.005497787147760391,0.00366519158706069,-0.00366519158706069
1747275442942852400,2.091852294921875,0.006108652334660292,0.003054326167330146,-0.004886921960860491
1747275442958919000,2.1079189453125,0.00733038317412138,0.001832595793530345,-0.003054326167330146
1747275442974944500,2.123944580078125,0.00733038317412138,0.0024434609804302454,-0.00427605677396059
1747275442990972200,2.13997216796875,0.006719517521560192,0.003054326167330146,-0.004886921960860491
1747275443007014100,2.15601416015625,0.004886921960860491,0.003054326167330146,-0.001832595793530345
1747275443023059000,2.172058837890625,0.006108652334660292,0.001832595793530345,-0.0024434609804302454
1747275443039084800,2.188084716796875,0.00733038317412138,0.0024434609804302454,-0.00427605677396059
1747275443055092000,2.204092041015625,0.005497787147760391,0.00366519158706069,-0.0024434609804302454
1747275443071118800,2.220118896484375,0.006719517521560192,0.003054326167330146,-0.0024434609804302454
1747275443087114200,2.2361142578125,0.00733038317412138,0.001832595793530345,-0.00427605677396059
1747275443103156200,2.25215625,0.00733038317412138,0.0012217304902151227,-0.001832595793530345
1747275443119226000,2.26822607421875,0.006719517521560192,0.001832595793530345,-0.00366519158706069
1747275443135278600,2.284278564453125,0.006719517521560192,0.001832595793530345,-0.004886921960860491
1747275443151308000,2.30030810546875,0.007941247895359993,0.0006108652451075613,-0.0024434609804302454
1747275443167347000,2.316346923828125,0.00733038317412138,0.0024434609804302454,-0.00427605677396059
1747275443183387000,2.332386962890625,0.006719517521560192,0.0024434609804302454,-0.005497787147760391
1747275443199457500,2.34845751953125,0.006108652334660292,0.003054326167330146,-0.00366519158706069
1747275443215464000,2.3644638671875,0.006108652334660292,0.001832595793530345,-0.00427605677396059
1747275443231498500,2.38049853515625,0.00427605677396059,0.001832595793530345,-0.00366519158706069
1747275443247541200,2.396541259765625,0.005497787147760391,0.0024434609804302454,-0.0012217304902151227
1747275443263589400,2.41258935546875,0.00366519158706069,0.0012217304902151227,-0.0024434609804302454
1747275443279615700,2.42861572265625,0.005497787147760391,0.003054326167330146,-0.00427605677396059
1747275443295623400,2.44462353515625,0.006719517521560192,0.0024434609804302454,-0.003054326167330146
1747275443311650300,2.460650390625,0.006719517521560192,0.003054326167330146,-0.00427605677396059
1747275443327652400,2.47665234375,0.00733038317412138,0.001832595793530345,-0.00366519158706069
1747275443343699500,2.492699462890625,0.004886921960860491,0.00366519158706069,-0.0024434609804302454
1747275443359768800,2.508768798828125,0.00733038317412138,0.0024434609804302454,-0.00427605677396059
1747275443375772000,2.52477197265625,0.005497787147760391,0.0024434609804302454,-0.003054326167330146
1747275443391797200,2.54079736328125,0.006108652334660292,0.0012217304902151227,-0.00427605677396059
1747275443407838200,2.556838134765625,0.00733038317412138,0.003054326167330146,-0.00366519158706069
1747275443423877600,2.572877685546875,0.006108652334660292,0.0012217304902151227,-0.00427605677396059
1747275443439945000,2.588945068359375,0.006719517521560192,0.0012217304902151227,-0.00366519158706069
1747275443455949800,2.60494970703125,0.006719517521560192,0.0024434609804302454,-0.0024434609804302454
1747275443471980300,2.620980224609375,0.006719517521560192,0.003054326167330146,-0.003054326167330146
1747275443488020200,2.637020263671875,0.005497787147760391,0.001832595793530345,-0.00427605677396059
1747275443504064000,2.65306396484375,0.007941247895359993,0.003054326167330146,-0.003054326167330146
1747275443520092000,2.669091796875,0.006108652334660292,0.0024434609804302454,-0.003054326167330146
1747275443536099000,2.68509912109375,0.006108652334660292,0.00427605677396059,-0.004886921960860491
1747275443552134700,2.701134765625,0.006108652334660292,0.003054326167330146,-0.0012217304902151227
1747275443568132600,2.717132568359375,0.006108652334660292,0.003054326167330146,-0.0012217304902151227
1747275443584173600,2.733173583984375,0.006108652334660292,0.003054326167330146,-0.0024434609804302454
1747275443600239600,2.749239501953125,0.00733038317412138,0.003054326167330146,-0.00366519158706069
1747275443616246000,2.76524609375,0.005497787147760391,0.0024434609804302454,-0.00427605677396059
1747275443632275500,2.781275390625,0.006719517521560192,0.003054326167330146,-0.00366519158706069
1747275443648318500,2.797318359375,0.006108652334660292,0.001832595793530345,-0.004886921960860491
1747275443664362500,2.813362548828125,0.006108652334660292,0.001832595793530345,-0.00427605677396059
1747275443680434200,2.82943408203125,0.006108652334660292,0.0024434609804302454,-0.003054326167330146
1747275443696438800,2.845438720703125,0.00733038317412138,0.003054326167330146,-0.00427605677396059
1747275443712505900,2.861505859375,0.00855211354792118,0.0024434609804302454,-0.003054326167330146
1747275443728549000,2.877549072265625,0.006108652334660292,0.001832595793530345,-0.0024434609804302454
1747275443744595500,2.893595458984375,0.006108652334660292,0.0024434609804302454,-0.00427605677396059
1747275443760624000,2.9096240234375,0.005497787147760391,0.0024434609804302454,-0.00366519158706069
1747275443776632600,2.925632568359375,0.006108652334660292,0.0012217304902151227,-0.001832595793530345
1747275443792661200,2.9416611328125,0.006719517521560192,0.001832595793530345,-0.00427605677396059
1747275443808660500,2.957660400390625,0.006108652334660292,0.00427605677396059,-0.00427605677396059
1747275443824704800,2.973704833984375,0.00855211354792118,0.0024434609804302454,-0.00427605677396059
1747275443840773400,2.9897734375,0.006719517521560192,0.001832595793530345,-0.00366519158706069
1747275443856777700,3.00577783203125,0.006719517521560192,0.0024434609804302454,-0.005497787147760391
1747275443872822300,3.021822265625,0.006108652334660292,0.003054326167330146,-0.004886921960860491
1747275443888866800,3.03786669921875,0.00733038317412138,0.003054326167330146,-0.003054326167330146
1747275443904907500,3.053907470703125,0.00733038317412138,0.0024434609804302454,-0.0024434609804302454
1747275443920980200,3.069980224609375,0.006719517521560192,0.00427605677396059,-0.003054326167330146
1747275443936989200,3.0859892578125,0.005497787147760391,0.0024434609804302454,-0.00427605677396059
1747275443953017000,3.10201708984375,0.00733038317412138,0.0024434609804302454,-0.00427605677396059
1747275443969058600,3.11805859375,0.006108652334660292,0.001832595793530345,-0.00366519158706069
1747275443985099800,3.134099853515625,0.006719517521560192,0.0024434609804302454,-0.00427605677396059
1747275444001132000,3.150132080078125,0.005497787147760391,0.003054326167330146,-0.00366519158706069
1747275444017145000,3.16614501953125,0.007941247895359993,0.0012217304902151227,-0.0024434609804302454
1747275444033190700,3.182190673828125,0.006719517521560192,0.0024434609804302454,-0.0024434609804302454
1747275444049190000,3.19818994140625,0.006719517521560192,0.003054326167330146,-0.00366519158706069
1747275444065232600,3.214232666015625,0.006108652334660292,0.003054326167330146,-0.00427605677396059
1747275444081303600,3.230303466796875,0.006108652334660292,0.003054326167330146,-0.00366519158706069
1747275444097344500,3.246344482421875,0.006719517521560192,0.0024434609804302454,-0.0024434609804302454
1747275444113373200,3.262373291015625,0.006108652334660292,0.003054326167330146,-0.0024434609804302454
1747275444129412900,3.278412841796875,0.004886921960860491,0.001832595793530345,-0.003054326167330146
1747275444145454600,3.29445458984375,0.00366519158706069,0.0006108652451075613,-0.003054326167330146
1747275444161525500,3.310525390625,0.006108652334660292,0.0024434609804302454,-0.003054326167330146
1747275444177535200,3.32653515625,0.00733038317412138,0.003054326167330146,-0.004886921960860491
1747275444193581600,3.34258154296875,0.006108652334660292,0.0024434609804302454,-0.00427605677396059
1747275444209621200,3.358621337890625,0.006719517521560192,0.0024434609804302454,-0.001832595793530345
1747275444225663500,3.37466357421875,0.005497787147760391,0.003054326167330146,-0.0024434609804302454
1747275444241686800,3.390686767578125,0.006108652334660292,0.0012217304902151227,-0.003054326167330146
1747275444257689600,3.406689697265625,0.00733038317412138,0.003054326167330146,-0.0024434609804302454
1747275444273714700,3.422714599609375,0.006719517521560192,0.001832595793530345,-0.004886921960860491
1747275444289715000,3.43871484375,0.00733038317412138,0.003054326167330146,-0.005497787147760391
1747275444305780200,3.4547802734375,0.006108652334660292,0.00366519158706069,-0.004886921960860491
1747275444321843200,3.47084326171875,0.006719517521560192,0.003054326167330146,-0.0024434609804302454
1747275444337843200,3.48684326171875,0.006108652334660292,0.003054326167330146,-0.0012217304902151227
1747275444353900800,3.50290087890625,0.004886921960860491,0.003054326167330146,-0.0024434609804302454
1747275444369938700,3.518938720703125,0.006108652334660292,0.0012217304902151227,-0.003054326167330146
1747275444386010400,3.53501025390625,0.005497787147760391,0.0012217304902151227,-0.005497787147760391
1747275444402078500,3.551078369140625,0.00733038317412138,0.0024434609804302454,-0.004886921960860491
1747275444418085400,3.56708544921875,0.006108652334660292,0.0024434609804302454,-0.00366519158706069
1747275444434113000,3.583113037109375,0.006108652334660292,0.00366519158706069,0.001832595793530345
1747275444450152700,3.599152587890625,0.006108652334660292,0.00366519158706069,-0.003054326167330146
1747275444466194400,3.6151943359375,0.005497787147760391,0.00366519158706069,-0.006108652334660292
1747275444482223600,3.6312236328125,0.004886921960860491,0.0024434609804302454,-0.00366519158706069
1747275444498229800,3.647229736328125,0.00733038317412138,0.003054326167330146,-0.003054326167330146
1747275444514283000,3.663282958984375,0.005497787147760391,0.003054326167330146,-0.006719517521560192
1747275444530279000,3.67927880859375,0.004886921960860491,0.001832595793530345,-0.005497787147760391
1747275444546322200,3.695322265625,0.006108652334660292,0.003054326167330146,-0.003054326167330146
1747275444562390800,3.711390869140625,0.006108652334660292,0.0024434609804302454,-0.00366519158706069
1747275444578395600,3.727395751953125,0.006719517521560192,0.0024434609804302454,-0.001832595793530345
1747275444594424800,3.7434248046875,0.005497787147760391,0.001832595793530345,-0.00366519158706069
1747275444610465800,3.7594658203125,0.006719517521560192,0.001832595793530345,-0.005497787147760391
1747275444626506000,3.775506103515625,0.006108652334660292,0.0024434609804302454,-0.006719517521560192
1747275444642571500,3.791571533203125,0.006719517521560192,0.0024434609804302454,-0.004886921960860491
1747275444658573600,3.807573486328125,0.00855211354792118,0.0024434609804302454,-0.0024434609804302454
1747275444674638800,3.823638916015625,0.006108652334660292,0.003054326167330146,-0.003054326167330146
1747275444690678800,3.8396787109375,0.006108652334660292,0.001832595793530345,-0.001832595793530345
1747275444706716200,3.855716064453125,0.006719517521560192,0.001832595793530345,-0.00427605677396059
1747275444722781700,3.87178173828125,0.006108652334660292,0.001832595793530345,-0.005497787147760391
1747275444738785300,3.887785400390625,0.005497787147760391,0.00366519158706069,-0.00366519158706069
1747275444754812200,3.903812255859375,0.006719517521560192,0.001832595793530345,-0.00427605677396059
1747275444770808600,3.91980859375,0.005497787147760391,0.003054326167330146,-0.00427605677396059
1747275444786848000,3.935847900390625,0.006108652334660292,0.003054326167330146,-0.003054326167330146
1747275444802873300,3.951873291015625,0.004886921960860491,0.003054326167330146,-0.001832595793530345
1747275444818878000,3.9678779296875,0.006719517521560192,0.003054326167330146,-0.003054326167330146
1747275444834948600,3.983948486328125,0.00733038317412138,0.0024434609804302454,-0.004886921960860491
1747275444850990000,3.999989990234375,0.005497787147760391,0.0024434609804302454,-0.004886921960860491
1747275444867065000,4.016065185546875,0.005497787147760391,0.001832595793530345,-0.00427605677396059
1747275444883138000,4.032137939453125,0.006108652334660292,0.0006108652451075613,-0.0012217304902151227
1747275444899146800,4.048146728515625,0.006108652334660292,0.0024434609804302454,-0.0024434609804302454
1747275444915171800,4.064171875,0.00733038317412138,0.00366519158706069,-0.001832595793530345
1747275444931209200,4.080209228515625,0.007941247895359993,0.0024434609804302454,-0.003054326167330146
1747275444947253800,4.096253662109375,0.00855211354792118,0.0024434609804302454,-0.004886921960860491
1747275444963282200,4.1122822265625,0.006719517521560192,0.0012217304902151227,-0.00366519158706069
1747275444979286000,4.1282861328125,0.006108652334660292,0.0024434609804302454,-0.003054326167330146
1747275444995357700,4.144357666015625,0.005497787147760391,0.001832595793530345,-0.003054326167330146
1747275445011360500,4.160360595703125,0.007941247895359993,0.00366519158706069,-0.0024434609804302454
1747275445027425500,4.176425537109375,0.006108652334660292,0.001832595793530345,-0.003054326167330146
1747275445043486500,4.192486572265625,0.006108652334660292,0.0024434609804302454,-0.0024434609804302454
1747275445059540500,4.20854052734375,0.007941247895359993,0.001832595793530345,-0.005497787147760391
1747275445075569700,4.224569580078125,0.006719517521560192,0.003054326167330146,-0.00427605677396059
1747275445091610000,4.240610107421875,0.00733038317412138,0.001832595793530345,-0.00366519158706069
1747275445107650000,4.256650146484375,0.007941247895359993,0.0024434609804302454,-0.003054326167330146
1747275445123717400,4.27271728515625,0.006719517521560192,0.003054326167330146,-0.0024434609804302454
1747275445139720200,4.28872021484375,0.005497787147760391,0.0024434609804302454,-0.0024434609804302454
1747275445155809000,4.30480908203125,0.006719517521560192,0.0006108652451075613,-0.00427605677396059
1747275445171848000,4.320847900390625,0.005497787147760391,0.00366519158706069,-0.00366519158706069
1747275445187889200,4.33688916015625,0.00733038317412138,0.0012217304902151227,-0.004886921960860491
1747275445203917800,4.352917724609375,0.004886921960860491,0.0024434609804302454,-0.003054326167330146
1747275445219925500,4.368925537109375,0.006108652334660292,0.001832595793530345,-0.003054326167330146
1747275445235956200,4.384956298828125,0.006719517521560192,0.001832595793530345,-0.0024434609804302454
1747275445251956200,4.400956298828125,0.006108652334660292,0.001832595793530345,-0.003054326167330146
1747275445268003600,4.417003662109375,0.006108652334660292,0.0024434609804302454,-0.00366519158706069
1747275445284075800,4.43307568359375,0.007941247895359993,0.0024434609804302454,-0.00427605677396059
1747275445300084000,4.449083984375,0.004886921960860491,0.003054326167330146,-0.004886921960860491
1747275445316113400,4.465113525390625,0.007941247895359993,0.001832595793530345,-0.00366519158706069
1747275445332154000,4.481154052734375,0.007941247895359993,0.0024434609804302454,-0.0024434609804302454
1747275445348213000,4.497212890625,0.006719517521560192,0.001832595793530345,-0.001832595793530345
1747275445364285200,4.51328515625,0.006108652334660292,0.003054326167330146,-0.001832595793530345
1747275445380292600,4.529292724609375,0.005497787147760391,0.0012217304902151227,-0.00366519158706069
1747275445396316700,4.545316650390625,0.006719517521560192,0.001832595793530345,-0.005497787147760391
1747275445412356600,4.561356689453125,0.006108652334660292,0.003054326167330146,-0.00366519158706069
1747275445428399400,4.5773994140625,0.006108652334660292,0.001832595793530345,-0.00366519158706069
1747275445444423200,4.593423095703125,0.006719517521560192,0.00366519158706069,-0.0024434609804302454
1747275445460425700,4.60942578125,0.006719517521560192,0.0024434609804302454,-0.003054326167330146
1747275445476455400,4.625455322265625,0.00733038317412138,0.003054326167330146,-0.003054326167330146
1747275445492452900,4.641452880859375,0.006108652334660292,0.0024434609804302454,-0.00427605677396059
1747275445508494800,4.657494873046875,0.006719517521560192,0.0012217304902151227,-0.005497787147760391
1747275445524561200,4.67356103515625,0.005497787147760391,0.0024434609804302454,-0.00366519158706069
1747275445540563500,4.6895634765625,0.00733038317412138,0.003054326167330146,-0.003054326167330146
1747275445556593000,4.705593017578125,0.006108652334660292,0,-0.0024434609804302454
1747275445572633000,4.721633056640625,0.004886921960860491,0.003054326167330146,-0.003054326167330146
1747275445588669700,4.737669677734375,0.005497787147760391,0.0012217304902151227,-0.00366519158706069
1747275445604740600,4.75374072265625,0.006108652334660292,0.001832595793530345,-0.004886921960860491
1747275445620750300,4.769750244140625,0.006108652334660292,0.00366519158706069,-0.003054326167330146
1747275445636796400,4.78579638671875,0.004886921960860491,0.00366519158706069,-0.004886921960860491
1747275445652858000,4.801858154296875,0.00733038317412138,0.003054326167330146,-0.00427605677396059
1747275445668904700,4.81790478515625,0.006108652334660292,0.001832595793530345,-0.0024434609804302454
1747275445684937700,4.833937744140625,0.004886921960860491,0.001832595793530345,-0.003054326167330146
1747275445700951000,4.849950927734375,0.004886921960860491,0.003054326167330146,-0.004886921960860491
1747275445716986400,4.865986328125,0.007941247895359993,0.003054326167330146,-0.005497787147760391
1747275445732993800,4.881993896484375,0.00733038317412138,0.00366519158706069,-0.00366519158706069
1747275445749036800,4.898036865234375,0.006108652334660292,0.003054326167330146,-0.005497787147760391
1747275445765110800,4.91411083984375,0.005497787147760391,0.00366519158706069,-0.001832595793530345
1747275445781120300,4.930120361328125,0.004886921960860491,0.0024434609804302454,-0.0024434609804302454
1747275445797159000,4.946158935546875,0.006719517521560192,0.00366519158706069,-0.00427605677396059
1747275445813201000,4.962200927734375,0.005497787147760391,0.003054326167330146,-0.003054326167330146
1747275445829250800,4.978250732421875,0.006108652334660292,0.00366519158706069,-0.00427605677396059
1747275445845318100,4.994318115234375,0.006719517521560192,0.00366519158706069,-0.00427605677396059
1747275445861320700,5.01032080078125,0.006719517521560192,0.0024434609804302454,-0.00366519158706069
1747275445877343700,5.02634375,0.00733038317412138,0.003054326167330146,-0.00366519158706069
1747275445893375500,5.04237548828125,0.007941247895359993,0.003054326167330146,-0.001832595793530345
1747275445909411800,5.058411865234375,0.005497787147760391,0.0024434609804302454,-0.0024434609804302454
1747275445925437000,5.07443701171875,0.00733038317412138,0.001832595793530345,-0.00366519158706069
1747275445941440000,5.09043994140625,0.00733038317412138,0.00427605677396059,-0.00427605677396059
1747275445957472500,5.106472412109375,0.005497787147760391,0.001832595793530345,-0.00427605677396059
1747275445973472300,5.12247216796875,0.006719517521560192,0.001832595793530345,-0.00427605677396059
1747275445989513500,5.138513427734375,0.005497787147760391,0.001832595793530345,-0.003054326167330146
1747275446005586700,5.154586669921875,0.006108652334660292,0.003054326167330146,-0.003054326167330146
1747275446021629400,5.17062939453125,0.00733038317412138,0.0024434609804302454,-0.00427605677396059
1747275446037660400,5.186660400390625,0.006719517521560192,0.0012217304902151227,-0.00366519158706069
1747275446053703000,5.202702880859375,0.005497787147760391,0.0024434609804302454,-0.00427605677396059
1747275446069745700,5.21874560546875,0.006719517521560192,0.0024434609804302454,-0.00427605677396059
1747275446085817600,5.234817626953125,0.006108652334660292,0.003054326167330146,-0.004886921960860491
1747275446101826300,5.250826416015625,0.00733038317412138,0.0024434609804302454,-0.00427605677396059
1747275446117892400,5.266892333984375,0.005497787147760391,0.0024434609804302454,-0.0024434609804302454
1747275446133936400,5.282936279296875,0.004886921960860491,0.00366519158706069,-0.00427605677396059
1747275446149981400,5.2989814453125,0.006108652334660292,0.003054326167330146,-0.00366519158706069
1747275446166010400,5.31501025390625,0.005497787147760391,0.003054326167330146,-0.00427605677396059
1747275446182022100,5.331022216796875,0.00733038317412138,0.0024434609804302454,-0.003054326167330146
1747275446198054700,5.3470546875,0.00733038317412138,0.00366519158706069,-0.00366519158706069
1747275446214051300,5.36305126953125,0.005497787147760391,0.0024434609804302454,-0.0024434609804302454
1747275446230095400,5.379095458984375,0.006108652334660292,0.003054326167330146,-0.003054326167330146
1747275446246164000,5.3951640625,0.005497787147760391,0.0024434609804302454,-0.003054326167330146
1747275446262170400,5.41117041015625,0.00733038317412138,0.00366519158706069,-0.003054326167330146
1747275446278213400,5.42721337890625,0.006108652334660292,0.003054326167330146,-0.00427605677396059
1747275446294255400,5.44325537109375,0.006108652334660292,0.001832595793530345,-0.001832595793530345
1747275446310326800,5.459326904296875,0.006108652334660292,0.001832595793530345,-0.00366519158706069
1747275446326400300,5.475400146484375,0.005497787147760391,0.001832595793530345,-0.003054326167330146
1747275446342411000,5.491410888671875,0.006719517521560192,0.003054326167330146,-0.00427605677396059
1747275446358441000,5.50744091796875,0.006719517521560192,0.00366519158706069,-0.00366519158706069
1747275446374488800,5.52348876953125,0.00733038317412138,0.001832595793530345,-0.00427605677396059
1747275446390537200,5.539537109375,0.006108652334660292,0.0024434609804302454,-0.00366519158706069
1747275446406569500,5.555569580078125,0.006719517521560192,0.003054326167330146,-0.003054326167330146
1747275446422581000,5.5715810546875,0.006719517521560192,0.0024434609804302454,-0.003054326167330146
1747275446438637300,5.58763720703125,0.006108652334660292,0.001832595793530345,-0.003054326167330146
1747275446454641000,5.603640869140625,0.006719517521560192,0.0024434609804302454,-0.0006108652451075613
1747275446470686200,5.619686279296875,0.004886921960860491,0.003054326167330146,-0.00366519158706069
1747275446486715000,5.63571484375,0.00733038317412138,0.00366519158706069,-0.00427605677396059
1747275446502723000,5.65172314453125,0.005497787147760391,0.003054326167330146,-0.00427605677396059
1747275446518753000,5.6677529296875,0.00733038317412138,0.0024434609804302454,-0.00366519158706069
1747275446534794000,5.6837939453125,0.006108652334660292,0.0024434609804302454,-0.00366519158706069
1747275446550846500,5.699846435546875,0.006108652334660292,0.003054326167330146,-0.0024434609804302454
1747275446566914600,5.71591455078125,0.006719517521560192,0.001832595793530345,-0.00366519158706069
1747275446582926800,5.7319267578125,0.005497787147760391,0.003054326167330146,-0.00366519158706069
1747275446598985500,5.7479853515625,0.005497787147760391,0.001832595793530345,-0.00427605677396059
1747275446615026000,5.76402587890625,0.00733038317412138,0.003054326167330146,-0.004886921960860491
1747275446631074600,5.780074462890625,0.006719517521560192,0.003054326167330146,-0.00366519158706069
1747275446647106300,5.796106201171875,0.006719517521560192,0.0024434609804302454,-0.00366519158706069
1747275446663114200,5.8121142578125,0.005497787147760391,0.0024434609804302454,-0.00366519158706069
1747275446679146500,5.828146484375,0.006719517521560192,0.0024434609804302454,-0.003054326167330146
1747275446695148000,5.84414794921875,0.006719517521560192,0.001832595793530345,-0.00427605677396059
1747275446711194400,5.8601943359375,0.005497787147760391,0.001832595793530345,-0.00366519158706069
1747275446727264300,5.87626416015625,0.006108652334660292,0.0012217304902151227,-0.004886921960860491
1747275446743270000,5.892269775390625,0.006108652334660292,0.004886921960860491,-0.00427605677396059
1747275446759320800,5.90832080078125,0.004886921960860491,0.001832595793530345,-0.00427605677396059
1747275446775361500,5.924361572265625,0.00733038317412138,0.001832595793530345,-0.0024434609804302454
1747275446791397400,5.9403974609375,0.006719517521560192,0.00427605677396059,-0.003054326167330146
1747275446807461400,5.95646142578125,0.00733038317412138,0.0024434609804302454,-0.003054326167330146
1747275446823465000,5.97246484375,0.006108652334660292,0.00366519158706069,-0.001832595793530345
1747275446839492900,5.988492919921875,0.005497787147760391,0.0024434609804302454,-0.003054326167330146
1747275446855531800,6.00453173828125,0.00733038317412138,0.0024434609804302454,-0.003054326167330146
1747275446871574300,6.02057421875,0.004886921960860491,0.0024434609804302454,-0.003054326167330146
1747275446887605000,6.03660498046875,0.006719517521560192,0.0024434609804302454,-0.003054326167330146
1747275446903616300,6.0526162109375,0.006108652334660292,0.003054326167330146,-0.003054326167330146
1747275446919682600,6.0686826171875,0.006719517521560192,0.001832595793530345,-0.0012217304902151227
1747275446935685400,6.084685302734375,0.006108652334660292,0.001832595793530345,-0.00366519158706069
1747275446951736600,6.100736572265625,0.005497787147760391,0.00366519158706069,-0.00366519158706069
1747275446967796000,6.1167958984375,0.006108652334660292,0.0024434609804302454,-0.001832595793530345
1747275446983826400,6.132826416015625,0.005497787147760391,0.001832595793530345,-0.0024434609804302454
1747275446999858200,6.148858154296875,0.005497787147760391,0.003054326167330146,-0.00366519158706069
1747275447015896300,6.164896240234375,0.00427605677396059,0.0024434609804302454,-0.003054326167330146
1747275447031975700,6.1809755859375,0.00733038317412138,0.0024434609804302454,-0.00427605677396059
1747275447048046800,6.197046875,0.006719517521560192,0.003054326167330146,-0.004886921960860491
1747275447064052500,6.213052490234375,0.005497787147760391,0.0012217304902151227,-0.0006108652451075613
1747275447080116700,6.22911669921875,0.00733038317412138,0.0024434609804302454,-0.001832595793530345
1747275447096160500,6.245160400390625,0.006719517521560192,0.00366519158706069,-0.001832595793530345
1747275447112206300,6.261206298828125,0.006108652334660292,0.0024434609804302454,-0.00366519158706069
1747275447128232400,6.277232421875,0.005497787147760391,0.003054326167330146,-0.004886921960860491
1747275447144238800,6.29323876953125,0.005497787147760391,0.003054326167330146,-0.00366519158706069
1747275447160271600,6.309271728515625,0.006719517521560192,0.001832595793530345,-0.00427605677396059
1747275447176273200,6.325273193359375,0.005497787147760391,0.0024434609804302454,-0.003054326167330146
1747275447192318500,6.341318359375,0.006719517521560192,0.003054326167330146,-0.0012217304902151227
1747275447208386800,6.35738671875,0.006108652334660292,0.001832595793530345,-0.003054326167330146
1747275447224411600,6.37341162109375,0.006719517521560192,0.00366519158706069,-0.00366519158706069
1747275447240480000,6.38947998046875,0.005497787147760391,0.003054326167330146,-0.00366519158706069
1747275447256522000,6.40552197265625,0.005497787147760391,0.0024434609804302454,-0.004886921960860491
1747275447272560000,6.42156005859375,0.006719517521560192,0.00366519158706069,-0.00427605677396059
1747275447288628000,6.4376279296875,0.006719517521560192,0.00366519158706069,-0.00427605677396059
1747275447304636400,6.453636474609375,0.00855211354792118,0.0012217304902151227,-0.0024434609804302454
1747275447320677600,6.469677734375,0.006108652334660292,0.001832595793530345,-0.0024434609804302454
1747275447336721700,6.4857216796875,0.006108652334660292,0.003054326167330146,-0.0024434609804302454
1747275447352765700,6.501765625,0.006719517521560192,0.003054326167330146,-0.00366519158706069
1747275447368794000,6.517794189453125,0.004886921960860491,0.003054326167330146,-0.004886921960860491
1747275447384799700,6.5337998046875,0.006719517521560192,0.003054326167330146,-0.00427605677396059
1747275447400869000,6.549869140625,0.006108652334660292,0.003054326167330146,-0.00427605677396059
1747275447416867600,6.56586767578125,0.007941247895359993,0.003054326167330146,-0.00366519158706069
1747275447432910800,6.581910888671875,0.005497787147760391,0.001832595793530345,-0.0024434609804302454
1747275447448982000,6.59798193359375,0.00733038317412138,0.00427605677396059,-0.0024434609804302454
1747275447464989200,6.6139892578125,0.006719517521560192,0.001832595793530345,-0.0024434609804302454
1747275447481015800,6.630015869140625,0.006719517521560192,0.0024434609804302454,-0.00427605677396059
1747275447497054200,6.64605419921875,0.006719517521560192,0.001832595793530345,-0.005497787147760391
1747275447513116400,6.662116455078125,0.004886921960860491,0.003054326167330146,-0.0024434609804302454
1747275447529189400,6.678189453125,0.006108652334660292,0.001832595793530345,-0.00366519158706069
1747275447545197800,6.69419775390625,0.00733038317412138,0.0024434609804302454,-0.003054326167330146
1747275447561274400,6.7102744140625,0.005497787147760391,0.001832595793530345,-0.00366519158706069
1747275447577312500,6.7263125,0.006719517521560192,0.0024434609804302454,-0.00366519158706069
1747275447593352000,6.74235205078125,0.004886921960860491,0.0024434609804302454,-0.00427605677396059
1747275447609379800,6.7583798828125,0.00733038317412138,0.0024434609804302454,-0.00427605677396059
1747275447625385700,6.7743857421875,0.004886921960860491,0.001832595793530345,-0.00427605677396059
1747275447641413400,6.790413330078125,0.006719517521560192,0.00366519158706069,-0.00366519158706069
1747275447657411600,6.80641162109375,0.006108652334660292,0.003054326167330146,-0.0024434609804302454
1747275447673454000,6.8224541015625,0.004886921960860491,0.001832595793530345,-0.0024434609804302454
1747275447689522200,6.838522216796875,0.006108652334660292,0.0024434609804302454,-0.0012217304902151227
1747275447705525500,6.854525390625,0.006719517521560192,0.003054326167330146,-0.005497787147760391
1747275447721550000,6.870550048828125,0.005497787147760391,0.0012217304902151227,-0.00427605677396059
1747275447737592000,6.886592041015625,0.006108652334660292,0.003054326167330146,-0.003054326167330146
1747275447753632000,6.902632080078125,0.006108652334660292,0.00366519158706069,-0.0024434609804302454
1747275447769702400,6.918702392578125,0.005497787147760391,0.001832595793530345,-0.00366519158706069
1747275447785711000,6.934711181640625,0.007941247895359993,0.003054326167330146,-0.003054326167330146
1747275447801738500,6.950738525390625,0.006108652334660292,0.00366519158706069,-0.00366519158706069
1747275447817778000,6.96677783203125,0.00733038317412138,0.0024434609804302454,-0.00366519158706069
1747275447833822700,6.98282275390625,0.006719517521560192,0.001832595793530345,-0.00366519158706069
1747275447849850000,6.99885009765625,0.006719517521560192,0.003054326167330146,-0.003054326167330146
1747275447865860900,7.01486083984375,0.006108652334660292,0.0024434609804302454,-0.0012217304902151227
1747275447881887700,7.0308876953125,0.006108652334660292,0.0024434609804302454,-0.0012217304902151227
1747275447897886200,7.04688623046875,0.006108652334660292,0.001832595793530345,-0.0012217304902151227
1747275447913929000,7.062928955078125,0.006108652334660292,0.003054326167330146,-0.0024434609804302454
1747275447929997600,7.07899755859375,0.00733038317412138,0.0024434609804302454,-0.00427605677396059
1747275447946005200,7.095005126953125,0.006108652334660292,0.001832595793530345,-0.00427605677396059
1747275447962038300,7.111038330078125,0.00427605677396059,0.001832595793530345,-0.00427605677396059
1747275447978080500,7.12708056640625,0.007941247895359993,0.0012217304902151227,-0.0024434609804302454
1747275447994122000,7.1431220703125,0.00366519158706069,0.0024434609804302454,-0.004886921960860491
1747275448010198000,7.159197998046875,0.006108652334660292,0.00366519158706069,-0.004886921960860491
1747275448026209000,7.175208984375,0.005497787147760391,0.003054326167330146,-0.00427605677396059
1747275448042240500,7.191240478515625,0.00366519158706069,0.003054326167330146,-0.004886921960860491
1747275448058279200,7.207279052734375,0.006719517521560192,0.001832595793530345,-0.0024434609804302454
1747275448074331400,7.223331298828125,0.006719517521560192,0.0012217304902151227,-0.001832595793530345
1747275448090354000,7.23935400390625,0.006719517521560192,0.003054326167330146,-0.0012217304902151227
1747275448106364000,7.255364013671875,0.006108652334660292,0.0024434609804302454,-0.001832595793530345
1747275448122396700,7.271396728515625,0.006719517521560192,0.003054326167330146,-0.003054326167330146
1747275448138388700,7.287388671875,0.006108652334660292,0.0024434609804302454,-0.003054326167330146
1747275448154425300,7.30342529296875,0.006108652334660292,0.0024434609804302454,-0.00366519158706069
1747275448170495200,7.3194951171875,0.02076941914856434,0.004886921960860491,-0.004886921960860491
1747275448186545000,7.335544921875,0.2272418737411499,0.0006108652451075613,-0.0024434609804302454
1747275448202578700,7.35157861328125,0.41172316670417786,-0.005497787147760391,-0.005497787147760391
1747275448218619400,7.367619384765625,0.6249151229858398,0.00427605677396059,0
1747275448234657500,7.383657470703125,0.39156460762023926,0.005497787147760391,-0.0006108652451075613
1747275448250723800,7.399723876953125,0.1215621829032898,0.007941247895359993,-0.005497787147760391
1747275448266732000,7.41573193359375,0.12828169763088226,0.00366519158706069,-0.006108652334660292
1747275448282807300,7.431807373046875,0.0861319974064827,0.00427605677396059,-0.007941247895359993
1747275448298846000,7.447845947265625,-0.012828170321881771,0.03298672288656235,-0.006719517521560192
1747275448314913000,7.4639130859375,-0.024434609338641167,0.09468411654233932,-0.00733038317412138
1747275448330937300,7.479937255859375,-0.02626720629632473,0.036041051149368286,-0.007941247895359993
1747275448346944500,7.495944580078125,-0.07757988572120667,-0.06841690838336945,-0.1319468915462494
1747275448362981000,7.511981201171875,-0.012217304669320583,-0.12828169763088226,-0.17776179313659668
1747275448378982100,7.527982177734375,0.0806342139840126,-0.10934487730264664,-0.13072516024112701
1747275448395028200,7.5440283203125,0.012828170321881771,-0.04092797264456749,-0.08246681094169617
1747275448411096600,7.5600966796875,-0.0507018156349659,-0.025656340643763542,-0.12889257073402405
1747275448427100700,7.5761005859375,-0.21441370248794556,-0.01710422709584236,-0.16920967400074005
1747275448443128000,7.592128173828125,-0.46181413531303406,-0.10873401165008545,-0.11545353382825851
1747275448459161000,7.6081611328125,-0.6988298296928406,-0.1563815027475357,-0.1014036312699318
1747275448475233300,7.6242333984375,-0.6200281977653503,-0.16859880089759827,-0.0910189226269722
1747275448491293200,7.640293212890625,-0.24617868661880493,-0.13866640627384186,-0.08307767659425735
1747275448507304400,7.656304443359375,0.028099801391363144,-0.2223549485206604,-0.04153883829712868
1747275448523342600,7.672342529296875,0.1062905490398407,1.0213667154312134,0.15515977144241333
1747275448539375000,7.688375,-0.12828169763088226,1.189354658126831,0.7800748944282532
1747275448555398000,7.70439794921875,-0.1007927656173706,0.12339477986097336,0.07391469180583954
1747275448571411500,7.720411376953125,-0.14416420459747314,-0.4306600093841553,-0.36651915311813354
1747275448587417900,7.73641796875,-0.11667526513338089,-0.06658431142568588,-0.06841690838336945
1747275448603446000,7.752446044921875,0.10201449692249298,0.17104226350784302,0.04581489413976669
1747275448619433000,7.768432861328125,0.7800748944282532,0.03787364438176155,-0.04703662544488907
1747275448635462400,7.78446240234375,1.3848315477371216,-0.056810468435287476,-0.13072516024112701
1747275448651519200,7.800519287109375,1.6200146675109863,0.059864792972803116,-0.06658431142568588
1747275448667561500,7.8165615234375,1.8613064289093018,0.1569923609495163,-0.04642575979232788
1747275448683598300,7.832598388671875,1.9950858354568481,0.46731191873550415,-0.004886921960860491
1747275448699628500,7.848628662109375,1.9089539051055908,0.7733554244041443,-0.03176499158143997
1747275448715659500,7.864659423828125,1.4428637027740479,0.7544185519218445,-0.02932153269648552
1747275448731717000,7.880717041015625,1.2956452369689941,0.5791002511978149,-0.1264491081237793
1747275448747723500,7.8967236328125,1.312138557434082,0.6676757335662842,-0.17409659922122955
1747275448763751000,7.9127509765625,1.3439035415649414,0.7476990818977356,-0.2076941877603531
1747275448779778600,7.928778564453125,1.3952162265777588,0.6194173693656921,-0.2590068578720093
1747275448795816000,7.94481591796875,1.671938180923462,0.48747047781944275,-0.23029619455337524
1747275448811835400,7.96083544921875,1.9938641786575317,0.646906316280365,-0.22418753802776337
1747275448827839200,7.976839111328125,2.241264581680298,1.3255776166915894,-0.3286454975605011
1747275448843871700,7.992871826171875,2.423302412033081,1.730581283569336,-0.43799036741256714
1747275448859866000,8.0088662109375,2.609616279602051,2.0085248947143555,-0.5479460954666138
1747275448875902000,8.02490185546875,2.225382089614868,2.1759018898010254,-0.5723807215690613
1747275448891962400,8.04096240234375,1.817324161529541,1.8765780925750732,-0.46364670991897583
1747275448907970000,8.056969970703125,1.50211763381958,1.1129964590072632,-0.2987131178379059
1747275448924001500,8.07300146484375,1.4856243133544922,0.7446447610855103,-0.22113321721553802
1747275448940032800,8.08903271484375,1.5076154470443726,0.6291912198066711,-0.12889257073402405
1747275448956089600,8.105089599609375,1.3341296911239624,1.0458012819290161,0.04581489413976669
1747275448972150300,8.121150390625,1.0708467960357666,1.5308283567428589,0.2675589919090271
1747275448988162800,8.137162841796876,0.7116580009460449,1.7898352146148682,0.00855211354792118
1747275449004195000,8.153195068359375,0.5998696684837341,1.7055357694625854,-0.3585779070854187
1747275449020223200,8.16922314453125,0.6524040699005127,1.0024298429489136,-0.14477506279945374
1747275449036253700,8.185253662109375,0.5027421116828918,1.0054842233657837,-0.09346238523721695
1747275449052268300,8.201268310546874,0.21563543379306793,1.4685200452804565,0.016493361443281174
1747275449068277000,8.217277099609374,0.007941247895359993,1.8118263483047485,0.17409659922122955
1747275449084308000,8.233307861328125,-0.07696902006864548,1.722640037536621,0.1869247704744339
1747275449100333300,8.249333251953125,-0.19975294172763824,1.1197160482406616,0.14905111491680145
1747275449116361700,8.26536181640625,-0.2981022298336029,0.4001167416572571,0.25045475363731384
1747275449132415500,8.28141552734375,-0.5601634383201599,-0.15027284622192383,0.45692721009254456
1747275449148463900,8.2974638671875,-0.8411614298820496,-0.45326200127601624,0.8888089060783386
1747275449164502000,8.313501953125,-0.9376781582832336,-0.7000515460968018,1.207680583000183
1747275449180532700,8.32953271484375,-0.9364564418792725,-1.2357803583145142,1.5961909294128418
1747275449196551700,8.3455517578125,-0.8509352803230286,-1.38849675655365,1.882686734199524
1747275449212617000,8.361616943359374,-0.5467243790626526,-0.8045095205307007,1.6841554641723633
1747275449228621600,8.37762158203125,0.14049901068210602,-0.2785545587539673,1.2473868131637573
1747275449244642600,8.393642578125,0.504574716091156,-0.056810468435287476,0.8784242272377014
1747275449260672800,8.4096728515625,0.7116580009460449,0.033597588539123535,0.5296201705932617
1747275449276703500,8.425703369140624,0.7812966704368591,-0.19914206862449646,0.3188716471195221
1747275449292760000,8.441760009765625,1.027475357055664,-0.8497135639190674,0.2174680233001709
1747275449308764200,8.45776416015625,1.3720033168792725,-1.4892895221710205,0.34636059403419495
1747275449324794000,8.473794189453125,1.4850133657455444,-1.6517796516418457,0.6035348773002625
1747275449340782300,8.4897822265625,1.4996742010116577,-1.6365079879760742,1.0335839986801147
1747275449356816100,8.505816162109374,1.5448782444000244,-1.0409144163131714,1.3249666690826416
1747275449372872000,8.521871826171875,1.719585657119751,-0.2919935882091522,1.5570955276489258
1747275449388874500,8.53787451171875,1.8350391387939453,0.5540547966957092,1.6108516454696655
1747275449404903400,8.5539033203125,1.8387043476104736,0.8955284357070923,1.5515977144241333
1747275449420941000,8.569941162109375,1.720807433128357,0.8778133392333984,1.3151928186416626
1747275449436962300,8.58596240234375,1.2357803583145142,-0.24984388053417206,0.38728857040405273
1747275449453023200,8.602023193359376,0.9089674949645996,0.09651670604944229,0.17104226350784302
1747275449469026800,8.61802685546875,0.4691445231437683,0.6249151229858398,0.05497787147760391
1747275449485090300,8.63409033203125,0.3677408695220947,0.4386012554168701,0.02626720629632473
1747275449501119500,8.650119384765626,0.43799036741256714,0.1875356286764145,0.025656340643763542
1747275449517158700,8.66615869140625,0.4715879559516907,-0.08674286305904388,0.04642575979232788
1747275449533178400,8.682178466796875,0.35185837745666504,-0.09162978827953339,-0.003054326167330146
1747275449549182700,8.6981826171875,0.24678955972194672,0.11728613078594208,-0.1569923609495163
1747275449565205800,8.714205810546876,0.2742784917354584,0.4105014503002167,-0.24984388053417206
1747275449581193500,8.730193359375,0.4056145250797272,0.7544185519218445,-0.3188716471195221
1747275449597225700,8.746225830078124,0.5937610268592834,0.6120869517326355,-0.3341432809829712
1747275449613295400,8.76229541015625,0.6224716901779175,0.6126978397369385,-0.2840523421764374
1747275449629300000,8.778300048828125,0.5674937963485718,0.8778133392333984,-0.21991148591041565
1747275449645358800,8.79435888671875,0.5070181488990784,1.171028733253479,-0.20525072515010834
1747275449661423600,8.810423583984376,0.33475416898727417,1.2614367008209229,-0.14294247329235077
1747275449677465900,8.8264658203125,0.25473082065582275,1.217454433441162,-0.09712757170200348
1747275449693529600,8.842529541015624,0.4043927788734436,1.2773191928863525,-0.060475658625364304
1747275449709537500,8.85853759765625,0.8613200187683105,1.595579981803894,-0.04703662544488907
1747275449725609000,8.87460888671875,0.9621127843856812,1.8991800546646118,0.039095375686883926
1747275449741643800,8.890643798828124,0.7098253965377808,1.6786576509475708,0.26572638750076294
1747275449757677000,8.906677001953126,0.4251621961593628,0.5748242139816284,0.778853178024292
1747275449773696300,8.9226962890625,-0.048258353024721146,0.17776179313659668,1.1020009517669678
1747275449789702000,8.938701904296876,-0.19120082259178162,0.49296826124191284,1.1349875926971436
1747275449805758200,8.95475830078125,-0.08857546001672745,0.9926560521125793,0.979827880859375
1747275449821748000,8.970748046875,-0.15271630883216858,1.1911872625350952,0.8338310718536377
1747275449837773000,8.98677294921875,-0.47280970215797424,1.1276572942733765,0.6713408827781677
1747275449853835000,9.0028349609375,-0.7354817390441895,1.4202617406845093,0.43799036741256714
1747275449869842200,9.01884228515625,-0.8301658630371094,1.8429805040359497,0.1319468915462494
1747275449885871900,9.034871826171875,-0.6530149579048157,1.5845844745635986,-0.08918632566928864
1747275449901902300,9.05090234375,-0.1771509200334549,2.0311269760131836,-0.6982190012931824
1747275449917972000,9.066971923828126,0.384845107793808,2.7788259983062744,-1.147204875946045
1747275449934028500,9.083028564453125,0.7177666425704956,3.0384438037872314,-1.3329079151153564
1747275449950033400,9.099033447265626,0.618195652961731,2.7336220741271973,-1.23394775390625
1747275449966096000,9.115095947265624,0.3029891550540924,2.696359157562256,-1.1337659358978271
1747275449982127400,9.13112744140625,-0.8038986921310425,1.264491081237793,-0.021991148591041565
1747275449998163200,9.1471630859375,-1.4495831727981567,0.8820894360542297,1.547932505607605
1747275450014177800,9.163177734375,-0.2889392673969269,2.062891960144043,1.8588629961013794
1747275450030187800,9.179187744140625,0.4080579876899719,2.252871036529541,2.448347806930542
1747275450046219800,9.1952197265625,0.4398229718208313,2.6535985469818115,2.4697282314300537
1747275450062254600,9.211254638671875,0.20891591906547546,2.5198190212249756,2.069000482559204
1747275450078285300,9.227285400390626,-0.2767219543457031,1.870469331741333,1.6413949728012085
1747275450094348800,9.243348876953124,-0.5992587804794312,1.55892813205719,1.3671164512634277
1747275450110382300,9.25938232421875,-0.7177666425704956,1.588249683380127,1.359175205230713
1747275450126447900,9.27544775390625,-0.6420193910598755,1.5693128108978271,1.4202617406845093
1747275450142480400,9.29148046875,-0.4453207552433014,1.4398094415664673,1.3408491611480713
1747275450158511000,9.307510986328126,-0.28649580478668213,1.0977247953414917,1.2113457918167114
1747275450174574800,9.323574951171874,-0.033597588539123535,1.2565498352050781,1.2571606636047363
1747275450190585900,9.3395859375,0.22540926933288574,0.9395107626914978,1.3115277290344238
1747275450206626800,9.355626708984374,0.25106561183929443,0.694553792476654,1.3267992734909058
1747275450222661000,9.3716611328125,0.48869219422340393,1.804495930671692,1.2883148193359375
1747275450238698800,9.38769873046875,1.1191051006317139,1.7715091705322266,1.2107349634170532
1747275450254763300,9.40376318359375,1.7873916625976562,2.0506746768951416,1.2308934926986694
1747275450270773800,9.419773681640624,2.563190460205078,2.1093177795410156,1.1618657112121582
1747275450286788400,9.435788330078125,2.685974597930908,2.0421226024627686,1.034194827079773
1747275450302844000,9.451843994140624,2.461786985397339,2.02929425239563,0.8484918475151062
1747275450318882800,9.4678828125,2.2351558208465576,2.0360138416290283,0.9352346658706665
1747275450334945300,9.4839453125,2.387261390686035,2.356107234954834,1.5766432285308838
1747275450350954000,9.4999541015625,3.2094860076904297,3.0720412731170654,2.5253169536590576
1747275450366986000,9.515986083984375,3.8154642581939697,3.1221323013305664,3.0720412731170654
1747275450383019800,9.532019775390625,2.47094988822937,2.395813465118408,4.777576923370361
1747275450399044400,9.54804443359375,3.2571334838867188,1.9737056493759155,4.617530345916748
1747275450415112200,9.5641123046875,3.1728341579437256,3.0885345935821533,4.313930511474609
1747275450431124700,9.580124755859375,2.5919013023376465,3.0494391918182373,3.938858985900879
1747275450447190800,9.596190673828126,2.2937989234924316,2.833193063735962,3.8227946758270264
1747275450463231000,9.61223095703125,1.9694294929504395,2.261423110961914,3.6584720611572266
1747275450479269600,9.62826953125,1.2583824396133423,1.4715744256973267,3.3341023921966553
1747275450495292000,9.6442919921875,0.3549126982688904,0.8552113175392151,3.124575614929199
1747275450511302700,9.660302734375,-0.6896668672561646,0.5522221922874451,3.0921998023986816
1747275450527338200,9.676338134765626,-0.8124507665634155,0.7513642311096191,3.1300735473632812
1747275450543417000,9.6924169921875,-0.10934487730264664,1.026253581047058,3.009122133255005
1747275450559447300,9.708447265625,0.7660250067710876,0.9627236127853394,2.5949554443359375
1747275450575518700,9.724518798828125,1.1496484279632568,1.3469579219818115,1.9211711883544922
1747275450591526400,9.7405263671875,0.5424483418464661,1.4453071355819702,2.2956316471099854
1747275450607588600,9.756588623046875,0.1722639948129654,1.2541064023971558,2.269975185394287
1747275450623626200,9.772626220703126,-0.018325956538319588,1.1099421977996826,2.1923954486846924
1747275450639655200,9.7886552734375,0.15332718193531036,0.9108000993728638,1.985922932624817
1747275450655722800,9.80472265625,0.46242499351501465,0.5381723046302795,1.660942554473877
1747275450671738400,9.82073828125,0.5381723046302795,0.2474004179239273,1.338405728340149
1747275450687772400,9.8367724609375,0.3219259977340698,0.4398229718208313,1.129489779472351
1747275450703804400,9.852804443359375,-0.036041051149368286,0.6591235995292664,0.96883225440979
1747275450719838200,9.868838134765625,-0.2223549485206604,0.6676757335662842,0.9926560521125793
1747275450735860500,9.884860595703126,-0.16493362188339233,0.6701191663742065,1.017701506614685
1747275450751866400,9.900866455078125,0.24068090319633484,0.3830125033855438,0.9761626720428467
1747275450767889000,9.916888916015624,0.53328537940979,0.1508837193250656,0.9902125597000122
1747275450783888400,9.932888427734374,0.6713408827781677,0.08796459436416626,0.9492846131324768
1747275450799932400,9.948932373046874,0.4642575979232788,0.13316862285137177,0.9224064946174622
1747275450815993600,9.96499365234375,0.0861319974064827,-0.10506882518529892,0.9724974632263184
1747275450832041000,9.981041015625,-0.28099802136421204,-0.6114761233329773,0.8032878041267395
1747275450848071200,9.9970712890625,-0.24190263450145721,-0.3445279896259308,0.4300491213798523
1747275450864101400,10.013101318359375,-0.08185594528913498,0.042760565876960754,0.06414084881544113
1747275450880120800,10.029120849609376,0.04764748737215996,0.13072516024112701,0.04398229718208313
1747275450896178000,10.045177978515625,0.15515977144241333,0.22540926933288574,0.059864792972803116
1747275450912186000,10.06118603515625,0.1618792861700058,0.2541199326515198,0.0354301854968071
1747275450928216600,10.077216552734376,0.14355333149433136,0.24984388053417206,0.07208210229873657
1747275450944256000,10.093256103515625,0.24617868661880493,0.4147774875164032,0.10445795953273773
1747275450960299800,10.1092998046875,0.3188716471195221,0.3689626157283783,0.18875735998153687
1747275450976327400,10.125327392578125,0.20402899384498596,0.20891591906547546,0.16982053220272064
1747275450992355000,10.14135498046875,0.018936822190880775,0.0012217304902151227,0.006719517521560192
1747275451008383200,10.15738330078125,0.007941247895359993,0.025045474991202354,0.016493361443281174
1747275451024364300,10.1733642578125,0.0806342139840126,0.001832595793530345,0.05742133408784866
1747275451040409000,10.1894091796875,0.08307767659425735,-0.03420845419168472,0.039706241339445114
1747275451056478700,10.205478759765626,0.0507018156349659,-0.029932396486401558,0.051312681287527084
1747275451072487200,10.221487060546876,0.01038470957428217,-0.04153883829712868,0.05864306539297104
1747275451088528000,10.23752783203125,-0.006719517521560192,-0.03420845419168472,0.04398229718208313
1747275451104572000,10.253572021484375,-0.0354301854968071,0.036041051149368286,0.009162978269159794
1747275451120612600,10.269612548828125,-0.06841690838336945,0.07696902006864548,-0.0006108652451075613
1747275451136684000,10.28568408203125,-0.015882495790719986,0.06719517707824707,0.01771509274840355
1747275451152692200,10.301692138671875,0.06841690838336945,0.08124507963657379,0.06780604273080826
1747275451168721000,10.317720947265625,0.06902777403593063,0.09468411654233932,0.08246681094169617
1747275451184762600,10.3337626953125,0.054367005825042725,0.042760565876960754,0.05375614017248154
1747275451200808700,10.34980859375,0.04703662544488907,-0.051312681287527084,0.001832595793530345
1747275451216840700,10.3658408203125,0.010995574295520782,-0.1258382350206375,0.00855211354792118
1747275451232851700,10.381851806640626,-0.04398229718208313,-0.10812314599752426,0.10873401165008545
1747275451248895700,10.397895751953126,0.00733038317412138,-0.3243694305419922,0.32498031854629517
1747275451264895200,10.413895263671876,0.03176499158143997,-0.5583308339118958,0.5992587804794312
1747275451280917500,10.42991748046875,0.0012217304902151227,-0.5259549617767334,0.911410927772522
1747275451296983800,10.44598388671875,0.04337143152952194,1.3622294664382935,-0.16798794269561768
1747275451313030000,10.46202978515625,0.02015855349600315,-0.00427605677396059,-0.013439035043120384
1747275451329060900,10.478060791015626,0.006108652334660292,0.001832595793530345,-0.012217304669320583
1747275451345095400,10.494095458984376,0.00427605677396059,0.00733038317412138,-0.006108652334660292
1747275451361137400,10.510137451171875,0.004886921960860491,0.0012217304902151227,-0.001832595793530345
1747275451377209000,10.526208984375,0.006108652334660292,0.0012217304902151227,-0.0012217304902151227
1747275451393219600,10.542219482421874,0.00733038317412138,0.001832595793530345,-0.00366519158706069
1747275451409307000,10.558306884765624,0.004886921960860491,0,-0.001832595793530345
1747275451425346300,10.57434619140625,0.00733038317412138,0.0012217304902151227,-0.0024434609804302454
1747275451441391000,10.59039111328125,0.007941247895359993,0.0006108652451075613,-0.00427605677396059
1747275451457419000,10.6064189453125,0.00855211354792118,0.00366519158706069,-0.0024434609804302454
1747275451473429500,10.622429443359374,0.004886921960860491,0.0012217304902151227,-0.003054326167330146
1747275451489463600,10.638463623046874,0.006108652334660292,0.00366519158706069,-0.004886921960860491
1747275451505467000,10.654466796875,0.006108652334660292,0.00427605677396059,-0.00366519158706069
1747275451521515300,10.670515380859374,0.00733038317412138,0.0024434609804302454,-0.0024434609804302454
1747275451537586700,10.686586669921875,0.005497787147760391,0.001832595793530345,-0.00366519158706069
1747275451553597000,10.702596923828125,0.006108652334660292,0.0024434609804302454,-0.00427605677396059
1747275451569641500,10.718641357421875,0.006108652334660292,0.0012217304902151227,-0.003054326167330146
1747275451585680000,10.734679931640626,0.00733038317412138,0.0024434609804302454,-0.00366519158706069
1747275451601754600,10.750754638671875,0.007941247895359993,0.00427605677396059,-0.00427605677396059
1747275451617824000,10.766823974609375,0.007941247895359993,0.0024434609804302454,-0.00427605677396059
1747275451633837000,10.782837158203124,0.006719517521560192,0.003054326167330146,-0.005497787147760391
1747275451649867500,10.798867431640625,0.005497787147760391,0.0024434609804302454,-0.003054326167330146
1747275451665911300,10.814911376953125,0.00733038317412138,0.003054326167330146,-0.0024434609804302454
1747275451681957600,10.83095751953125,0.005497787147760391,0.003054326167330146,-0.004886921960860491
1747275451697985000,10.846985107421874,0.00733038317412138,0.001832595793530345,-0.0024434609804302454
1747275451713997600,10.86299755859375,0.006108652334660292,0.0012217304902151227,-0.00366519158706069
1747275451730061000,10.87906103515625,0.005497787147760391,0.00366519158706069,-0.00366519158706069
1747275451746060000,10.89506005859375,0.006719517521560192,0.00366519158706069,-0.004886921960860491
1747275451762108000,10.91110791015625,0.006108652334660292,0.001832595793530345,-0.003054326167330146
1747275451778180600,10.9271806640625,0.007941247895359993,0.0024434609804302454,-0.003054326167330146
1747275451794233000,10.943233154296875,0.006719517521560192,0.001832595793530345,-0.00427605677396059
1747275451810261200,10.95926123046875,0.004886921960860491,0.003054326167330146,-0.00427605677396059
1747275451826302000,10.975302001953125,0.006108652334660292,0.00366519158706069,-0.00366519158706069
1747275451842342700,10.9913427734375,0.00733038317412138,0.00366519158706069,-0.003054326167330146
1747275451858411000,11.007410888671876,0.006108652334660292,0.0012217304902151227,-0.00427605677396059
1747275451874419000,11.0234189453125,0.00733038317412138,0.003054326167330146,-0.003054326167330146
1747275451890519300,11.039519287109375,0.005497787147760391,0.0024434609804302454,-0.00427605677396059
1747275451906566400,11.05556640625,0.007941247895359993,0.0012217304902151227,-0.003054326167330146
1747275451922616600,11.071616455078125,0.005497787147760391,0.001832595793530345,-0.003054326167330146
1747275451938647800,11.087647705078124,0.006108652334660292,0.00366519158706069,-0.00366519158706069
1747275451954656500,11.103656494140624,0.006719517521560192,0.00366519158706069,-0.00366519158706069
1747275451970688300,11.119688232421876,0.006108652334660292,0.0024434609804302454,-0.003054326167330146
1747275451986689000,11.13568896484375,0.006719517521560192,0.0024434609804302454,-0.00427605677396059
1747275452002732800,11.15173291015625,0.007941247895359993,0.0012217304902151227,-0.0024434609804302454
1747275452018808800,11.167808837890625,0.00427605677396059,0.003054326167330146,-0.003054326167330146
1747275452034817500,11.183817626953125,0.006108652334660292,0.00366519158706069,-0.00366519158706069
1747275452050887200,11.19988720703125,0.005497787147760391,0.0006108652451075613,-0.00427605677396059
1747275452066932200,11.21593212890625,0.006719517521560192,0.003054326167330146,-0.004886921960860491
1747275452082996200,11.231996337890624,0.006108652334660292,0.003054326167330146,-0.003054326167330146
1747275452099063000,11.24806298828125,0.006108652334660292,0.001832595793530345,-0.003054326167330146
1747275452115069400,11.2640693359375,0.006719517521560192,0.0012217304902151227,-0.0024434609804302454
1747275452131094000,11.280093994140625,0.006719517521560192,0.0012217304902151227,-0.00427605677396059
1747275452147131400,11.29613134765625,0.00733038317412138,0.0006108652451075613,-0.00366519158706069
1747275452163175700,11.31217578125,0.006719517521560192,0.003054326167330146,-0.00427605677396059
1747275452179202600,11.32820263671875,0.006719517521560192,0.00427605677396059,-0.005497787147760391
1747275452195211000,11.3442109375,0.006108652334660292,0.00366519158706069,-0.00366519158706069
1747275452211286500,11.36028662109375,0.005497787147760391,0.00427605677396059,-0.003054326167330146
1747275452227290600,11.37629052734375,0.00733038317412138,0.00366519158706069,-0.00366519158706069
1747275452243338000,11.392337890625,0.00855211354792118,0.005497787147760391,-0.0024434609804302454
1747275452259407000,11.408406982421875,0.006719517521560192,0.004886921960860491,-0.004886921960860491
1747275452275452200,11.4244521484375,0.00733038317412138,0.003054326167330146,-0.00366519158706069
1747275452291480800,11.440480712890626,0.00733038317412138,0.0024434609804302454,-0.00427605677396059
1747275452307522000,11.45652197265625,0.00733038317412138,0.0024434609804302454,-0.00366519158706069
1747275452323587000,11.472587158203124,0.006108652334660292,0.0006108652451075613,-0.0012217304902151227
1747275452339661000,11.4886611328125,0.00733038317412138,0.0024434609804302454,-0.003054326167330146
1747275452355672300,11.50467236328125,0.006719517521560192,0.00366519158706069,-0.004886921960860491
1747275452371728000,11.520727783203125,0.006108652334660292,0.004886921960860491,-0.004886921960860491
1747275452387768000,11.53676806640625,0.006108652334660292,0.003054326167330146,-0.005497787147760391
1747275452403806500,11.552806396484375,0.00427605677396059,0.001832595793530345,-0.00427605677396059
1747275452419832600,11.56883251953125,0.006719517521560192,0.0024434609804302454,-0.00366519158706069
1747275452435839700,11.58483984375,0.006108652334660292,0.001832595793530345,-0.0024434609804302454
1747275452451880400,11.60088037109375,0.004886921960860491,0.001832595793530345,-0.0024434609804302454
1747275452467881500,11.616881591796876,0.007941247895359993,0.001832595793530345,-0.0024434609804302454
1747275452483924200,11.63292431640625,0.007941247895359993,0.003054326167330146,-0.00427605677396059
1747275452499956000,11.6489560546875,0.006108652334660292,0.003054326167330146,-0.003054326167330146
1747275452515962600,11.664962646484375,0.005497787147760391,0.001832595793530345,-0.001832595793530345
1747275452531984400,11.680984375,0.004886921960860491,0,-0.00366519158706069
1747275452547982600,11.696982666015625,0.006719517521560192,0.001832595793530345,-0.0024434609804302454
1747275452564072200,11.713072265625,0.006719517521560192,0,-0.00366519158706069
1747275452580188700,11.729188720703124,0.006108652334660292,0.0006108652451075613,-0.00366519158706069
1747275452596198700,11.74519873046875,0.00733038317412138,0.003054326167330146,-0.00427605677396059
1747275452612226600,11.7612265625,0.006719517521560192,0.0024434609804302454,-0.00427605677396059
1747275452628227300,11.777227294921875,0.00733038317412138,0.0024434609804302454,-0.003054326167330146
1747275452644266500,11.7932666015625,0.005497787147760391,0.003054326167330146,-0.001832595793530345
1747275452660295000,11.809294921875,0.005497787147760391,0.0006108652451075613,-0.003054326167330146
1747275452676300800,11.82530078125,0.006719517521560192,0.0024434609804302454,-0.003054326167330146
1747275452692328700,11.84132861328125,0.007941247895359993,0.0024434609804302454,-0.003054326167330146
1747275452708328200,11.857328125,0.006108652334660292,0.0024434609804302454,-0.004886921960860491
1747275452724373500,11.87337353515625,0.006108652334660292,0.003054326167330146,-0.004886921960860491
1747275452740404200,11.889404296875,0.006719517521560192,0.001832595793530345,-0.00427605677396059
1747275452756456000,11.9054560546875,0.006719517521560192,0.0024434609804302454,-0.00366519158706069
1747275452772487000,11.92148681640625,0.004886921960860491,0.0012217304902151227,-0.0024434609804302454
1747275452788485600,11.937485595703125,0.006108652334660292,0.0024434609804302454,-0.0024434609804302454
1747275452804521200,11.953521240234375,0.005497787147760391,0.003054326167330146,-0.005497787147760391
1747275452820548900,11.969548828125,0.006108652334660292,0.003054326167330146,-0.00427605677396059
1747275452836555800,11.9855556640625,0.006108652334660292,0.00427605677396059,-0.0024434609804302454
1747275452852584000,12.001583984375,0.006108652334660292,0.003054326167330146,-0.001832595793530345
1747275452868584400,12.01758447265625,0.005497787147760391,0.0024434609804302454,-0.003054326167330146
1747275452884628700,12.033628662109376,0.00733038317412138,0.003054326167330146,-0.0012217304902151227
1747275452900658700,12.04965869140625,0.004886921960860491,0.0024434609804302454,-0.003054326167330146
1747275452916664800,12.065664794921876,0.005497787147760391,0.0024434609804302454,-0.00366519158706069
1747275452932694300,12.0816943359375,0.005497787147760391,0.0024434609804302454,-0.004886921960860491
1747275452948691500,12.09769140625,0.006719517521560192,0.0024434609804302454,-0.004886921960860491
1747275452964733200,12.113733154296876,0.004886921960860491,0.0012217304902151227,-0.003054326167330146
1747275452980765700,12.129765625,0.006108652334660292,0.001832595793530345,-0.0024434609804302454
1747275452996772600,12.145772705078125,0.00855211354792118,0.003054326167330146,-0.0024434609804302454
1747275453012797000,12.161796875,0.005497787147760391,0.003054326167330146,-0.00366519158706069
1747275453028802300,12.17780224609375,0.00733038317412138,0.003054326167330146,-0.00427605677396059
1747275453044880000,12.1938798828125,0.00733038317412138,0.0012217304902151227,-0.004886921960860491
1747275453060906200,12.20990625,0.006108652334660292,0.0012217304902151227,-0.00366519158706069
1747275453076912000,12.225912109375,0.007941247895359993,0.001832595793530345,-0.00366519158706069
1747275453092941000,12.241941162109375,0.006108652334660292,0.001832595793530345,-0.003054326167330146
1747275453108942800,12.25794287109375,0.006719517521560192,0.0012217304902151227,-0.0024434609804302454
1747275453124986400,12.273986328125,0.005497787147760391,0.001832595793530345,-0.00427605677396059
1747275453141020700,12.290020751953126,0.006719517521560192,0.003054326167330146,-0.003054326167330146
1747275453157032400,12.306032470703125,0.006108652334660292,0.00427605677396059,-0.0024434609804302454
1747275453173069800,12.32206982421875,0.006719517521560192,0.0024434609804302454,-0.00427605677396059
1747275453189073400,12.338073486328126,0.006719517521560192,0.0012217304902151227,-0.003054326167330146
1747275453205115000,12.354114990234375,0.00733038317412138,0.001832595793530345,-0.003054326167330146
1747275453221141500,12.3701416015625,0.007941247895359993,0.001832595793530345,-0.003054326167330146
1747275453237149700,12.386149658203125,0.006108652334660292,0.00427605677396059,-0.0024434609804302454
1747275453253180200,12.40218017578125,0.006108652334660292,0.0024434609804302454,-0.00427605677396059
1747275453269179600,12.4181796875,0.00733038317412138,0.00366519158706069,-0.00427605677396059
1747275453285219800,12.4342197265625,0.006719517521560192,0.001832595793530345,-0.00427605677396059
1747275453301251300,12.450251220703125,0.006108652334660292,0.0024434609804302454,-0.003054326167330146
1747275453317257000,12.466257080078124,0.006108652334660292,0.0006108652451075613,-0.003054326167330146
1747275453333326300,12.482326416015624,0.005497787147760391,0.001832595793530345,-0.00366519158706069
1747275453349323000,12.498322998046875,0.006719517521560192,0.003054326167330146,-0.00366519158706069
1747275453365362400,12.514362548828124,0.00733038317412138,0.0024434609804302454,-0.00427605677396059
1747275453381394400,12.53039453125,0.006108652334660292,0.00366519158706069,-0.006108652334660292
1747275453397404700,12.54640478515625,0.006108652334660292,0.0024434609804302454,-0.004886921960860491
1747275453413438500,12.5624384765625,0.006108652334660292,0.00366519158706069,-0.0024434609804302454
1747275453429439500,12.578439453125,0.006719517521560192,0.0024434609804302454,-0.00427605677396059
1747275453445482800,12.594482666015624,0.00733038317412138,0.001832595793530345,-0.003054326167330146
1747275453461511200,12.61051123046875,0.006108652334660292,0.00366519158706069,-0.001832595793530345
1747275453477520600,12.626520751953125,0.00733038317412138,0.003054326167330146,-0.00427605677396059
1747275453493568000,12.642568115234376,0.005497787147760391,0.0024434609804302454,-0.00366519158706069
1747275453509572900,12.65857275390625,0.00733038317412138,0.003054326167330146,-0.00366519158706069
1747275453525618700,12.67461865234375,0.005497787147760391,0.0012217304902151227,-0.003054326167330146
1747275453541653000,12.690653076171875,0.006719517521560192,0.0024434609804302454,-0.00427605677396059
1747275453557665300,12.706665283203124,0.006719517521560192,0.001832595793530345,-0.00427605677396059
1747275453573701000,12.722701171875,0.006108652334660292,0.0024434609804302454,-0.003054326167330146
1747275453589704700,12.73870458984375,0.006719517521560192,0.0024434609804302454,-0.0024434609804302454
1747275453605750000,12.75475,0.00733038317412138,0.003054326167330146,-0.00366519158706069
1747275453621782000,12.770781982421875,0.006108652334660292,0.0024434609804302454,-0.00366519158706069
1747275453637788400,12.786788330078124,0.00427605677396059,0.0012217304902151227,-0.00427605677396059
1747275453653840100,12.802840087890624,0.00733038317412138,0.0024434609804302454,-0.001832595793530345
1747275453669863200,12.81886328125,0.006719517521560192,0.00366519158706069,-0.00366519158706069
1747275453685904100,12.834904052734375,0.006108652334660292,0.003054326167330146,-0.003054326167330146
1747275453701938000,12.85093798828125,0.00733038317412138,0.0006108652451075613,-0.00427605677396059
1747275453717953300,12.866953369140624,0.006719517521560192,0.0024434609804302454,-0.00366519158706069
1747275453733987000,12.882987060546874,0.006108652334660292,0.00366519158706069,-0.0024434609804302454
1747275453749982000,12.89898193359375,0.006719517521560192,0,-0.003054326167330146
1747275453766019600,12.91501953125,0.00855211354792118,0.001832595793530345,-0.003054326167330146
1747275453782047000,12.931046875,0.006108652334660292,0.003054326167330146,-0.00366519158706069
1747275453798059300,12.947059326171875,0.005497787147760391,0.00366519158706069,-0.00427605677396059
1747275453814114800,12.96311474609375,0.004886921960860491,0.0012217304902151227,-0.00427605677396059
1747275453830121500,12.97912158203125,0.006719517521560192,0.001832595793530345,-0.004886921960860491
1747275453846169000,12.995169189453126,0.006719517521560192,0.001832595793530345,-0.00366519158706069
1747275453862198800,13.01119873046875,0.006108652334660292,0.003054326167330146,-0.00366519158706069
1747275453878205000,13.027204833984374,0.006108652334660292,0.003054326167330146,-0.00366519158706069
1747275453894236200,13.043236083984375,0.004886921960860491,0.003054326167330146,-0.00366519158706069
1747275453910240300,13.059240234375,0.006108652334660292,0.001832595793530345,-0.00427605677396059
1747275453926286300,13.075286376953125,0.006719517521560192,0.00427605677396059,-0.004886921960860491
1747275453942318600,13.091318603515624,0.004886921960860491,0.0024434609804302454,-0.00427605677396059
1747275453958325800,13.10732568359375,0.00733038317412138,0.00366519158706069,-0.001832595793530345
1747275453974388500,13.123388427734374,0.00733038317412138,0.0012217304902151227,-0.003054326167330146
1747275453990388000,13.139387939453124,0.006719517521560192,0.0012217304902151227,-0.003054326167330146
1747275454006465000,13.155465087890626,0.005497787147760391,0.0024434609804302454,-0.00427605677396059
1747275454022500000,13.1715,0.00733038317412138,0.0012217304902151227,-0.004886921960860491
1747275454038510600,13.187510498046874,0.006108652334660292,0.0024434609804302454,-0.00366519158706069
1747275454054539000,13.2035390625,0.006719517521560192,0.003054326167330146,-0.003054326167330146
1747275454070538500,13.21953857421875,0.006719517521560192,0.001832595793530345,-0.0024434609804302454
1747275454086580200,13.235580322265625,0.006719517521560192,0.0012217304902151227,-0.003054326167330146
1747275454102608600,13.251608642578125,0.00733038317412138,0.0024434609804302454,-0.0024434609804302454
1747275454118680000,13.26768017578125,0.00733038317412138,0.00366519158706069,-0.00427605677396059
1747275454134741000,13.283740966796875,0.006719517521560192,0.00366519158706069,-0.00427605677396059
1747275454150742300,13.2997421875,0.005497787147760391,0.0024434609804302454,-0.00427605677396059
1747275454166784000,13.315783935546875,0.00733038317412138,0.003054326167330146,-0.0024434609804302454
1747275454182816800,13.331816650390625,0.007941247895359993,0.0024434609804302454,-0.003054326167330146
1747275454198828000,13.347828125,0.006108652334660292,0.003054326167330146,-0.00366519158706069
1747275454214860800,13.36386083984375,0.00733038317412138,0.003054326167330146,-0.00427605677396059
1747275454230865200,13.379865234375,0.006108652334660292,0.001832595793530345,-0.004886921960860491
1747275454246909200,13.3959091796875,0.006719517521560192,0.0024434609804302454,-0.004886921960860491
1747275454262937900,13.411937744140625,0.006108652334660292,0.00427605677396059,-0.00427605677396059
1747275454278944000,13.427944091796874,0.006719517521560192,0.0024434609804302454,-0.004886921960860491
1747275454295016400,13.444016357421875,0.006108652334660292,0.0012217304902151227,-0.00427605677396059
1747275454311063600,13.4600634765625,0.007941247895359993,0.003054326167330146,-0.00366519158706069
1747275454327109400,13.476109375,0.006108652334660292,0.0024434609804302454,-0.00427605677396059
1747275454343138600,13.492138671875,0.006108652334660292,0.00366519158706069,-0.003054326167330146
1747275454359144200,13.508144287109374,0.004886921960860491,0.003054326167330146,-0.00427605677396059
1747275454375172000,13.524172119140625,0.007941247895359993,0.0024434609804302454,-0.00366519158706069
1747275454391173400,13.54017333984375,0.006108652334660292,0.003054326167330146,-0.00427605677396059
1747275454407217400,13.556217529296875,0.00733038317412138,0.0024434609804302454,-0.003054326167330146
1747275454423246800,13.572246826171876,0.006719517521560192,0.0012217304902151227,-0.0024434609804302454
1747275454439250200,13.588250244140625,0.005497787147760391,0.003054326167330146,-0.00366519158706069
1747275454455315500,13.6043154296875,0.006719517521560192,0.0024434609804302454,-0.003054326167330146
1747275454471316500,13.62031640625,0.006108652334660292,0.003054326167330146,-0.00366519158706069
1747275454487381800,13.6363818359375,0.006719517521560192,0.0024434609804302454,-0.004886921960860491
1747275454503411500,13.652411376953125,0.006719517521560192,0.0024434609804302454,-0.004886921960860491
1747275454519421000,13.6684208984375,0.005497787147760391,0.0024434609804302454,-0.0024434609804302454
1747275454535449300,13.684449462890624,0.00733038317412138,0.001832595793530345,-0.003054326167330146
1747275454551447600,13.700447509765626,0.007941247895359993,0.0024434609804302454,-0.00366519158706069
1747275454567490600,13.716490478515626,0.006108652334660292,0.0024434609804302454,-0.003054326167330146
1747275454583519000,13.73251904296875,0.005497787147760391,0.0024434609804302454,-0.0024434609804302454
1747275454599527000,13.74852685546875,0.006719517521560192,0.003054326167330146,-0.00427605677396059
1747275454615554300,13.76455419921875,0.006719517521560192,0.001832595793530345,-0.00366519158706069
1747275454631555000,13.78055517578125,0.005497787147760391,0.001832595793530345,-0.003054326167330146
1747275454647597600,13.79659765625,0.006108652334660292,0.0012217304902151227,-0.00366519158706069
1747275454663628500,13.812628662109375,0.006719517521560192,0.001832595793530345,-0.00366519158706069
1747275454679674600,13.828674560546874,0.005497787147760391,0.003054326167330146,-0.00366519158706069
1747275454695704600,13.84470458984375,0.006719517521560192,0.003054326167330146,-0.00427605677396059
1747275454711706400,13.860706298828125,0.006719517521560192,0.003054326167330146,-0.0024434609804302454
1747275454727751000,13.8767509765625,0.006719517521560192,0.001832595793530345,-0.004886921960860491
1747275454743782100,13.8927822265625,0.006719517521560192,0.0024434609804302454,-0.00366519158706069
1747275454759793400,13.90879345703125,0.004886921960860491,0.0006108652451075613,-0.001832595793530345
1747275454775874300,13.924874267578126,0.00733038317412138,0.001832595793530345,-0.00366519158706069
1747275454791876600,13.940876708984375,0.00733038317412138,0.003054326167330146,-0.00427605677396059
1747275454807928000,13.956927978515624,0.00733038317412138,0.0024434609804302454,-0.00366519158706069
1747275454823948800,13.97294873046875,0.006108652334660292,0.001832595793530345,-0.0024434609804302454
1747275454839957200,13.988957275390625,0.004886921960860491,0.001832595793530345,-0.00427605677396059
1747275454855988200,14.00498828125,0.006108652334660292,0.001832595793530345,-0.003054326167330146
1747275454871982300,14.020982421875,0.006108652334660292,0.0024434609804302454,-0.0024434609804302454
1747275454888017000,14.037016845703125,0.006108652334660292,0.001832595793530345,-0.0024434609804302454
1747275454904047000,14.053047119140626,0.006719517521560192,0.003054326167330146,-0.00427605677396059
1747275454920055600,14.0690556640625,0.006719517521560192,0.00427605677396059,-0.00427605677396059
1747275454936086000,14.0850859375,0.006108652334660292,0.0024434609804302454,-0.00366519158706069
1747275454952085500,14.10108544921875,0.00733038317412138,0.001832595793530345,-0.004886921960860491
1747275454968171500,14.117171630859374,0.006719517521560192,0.0006108652451075613,-0.00366519158706069
1747275454984201000,14.133200927734375,0.006719517521560192,0.0024434609804302454,-0.00366519158706069
1747275455000234000,14.14923388671875,0.006719517521560192,0.0024434609804302454,-0.004886921960860491
1747275455016259800,14.165259765625,0.007941247895359993,0.0024434609804302454,-0.00427605677396059
1747275455032263000,14.181262939453125,0.006108652334660292,0.0012217304902151227,-0.00427605677396059
1747275455048323600,14.197323486328125,0.006108652334660292,0.001832595793530345,-0.0024434609804302454
1747275455064346600,14.2133466796875,0.006719517521560192,0.0006108652451075613,-0.0024434609804302454
1747275455080351700,14.229351806640626,0.004886921960860491,0.001832595793530345,-0.004886921960860491
1747275455096382500,14.245382568359375,0.006719517521560192,0.0024434609804302454,-0.00427605677396059
1747275455112379600,14.261379638671874,0.00733038317412138,0.0024434609804302454,-0.00366519158706069
1747275455128420900,14.2774208984375,0.007941247895359993,0.00427605677396059,-0.00366519158706069
1747275455144452400,14.293452392578125,0.006108652334660292,0.0024434609804302454,-0.003054326167330146
1747275455160509000,14.309509033203126,0.006108652334660292,0.0024434609804302454,-0.0024434609804302454
1747275455176540000,14.325539794921875,0.00733038317412138,0.003054326167330146,-0.003054326167330146
1747275455192537300,14.341537353515625,0.006719517521560192,0.00427605677396059,-0.00427605677396059
1747275455208574200,14.35757421875,0.006108652334660292,0.0012217304902151227,-0.0024434609804302454
1747275455224599800,14.373599853515625,0.004886921960860491,0.0024434609804302454,-0.003054326167330146
1747275455240604400,14.3896044921875,0.004886921960860491,0.001832595793530345,-0.00427605677396059
1747275455256644600,14.40564453125,0.006108652334660292,0.00427605677396059,-0.003054326167330146
1747275455272643800,14.421643798828125,0.006108652334660292,0.001832595793530345,-0.003054326167330146
1747275455288682500,14.4376826171875,0.004886921960860491,0.00366519158706069,-0.003054326167330146
1747275455304710100,14.453710205078124,0.006719517521560192,0.001832595793530345,-0.00366519158706069
1747275455320711700,14.469711669921875,0.005497787147760391,0.001832595793530345,-0.00366519158706069
1747275455336739800,14.48573974609375,0.006719517521560192,0.0024434609804302454,-0.003054326167330146
1747275455352736500,14.501736572265624,0.006108652334660292,0.0024434609804302454,-0.00427605677396059
1747275455368771600,14.517771484375,0.006719517521560192,0.003054326167330146,-0.003054326167330146
1747275455384795100,14.533795166015626,0.004886921960860491,0.003054326167330146,-0.00427605677396059
1747275455400802600,14.549802490234375,0.006719517521560192,0.0024434609804302454,-0.00427605677396059
1747275455416843500,14.565843505859375,0.005497787147760391,0.00427605677396059,-0.00366519158706069
1747275455432843800,14.58184375,0.006108652334660292,0.0024434609804302454,-0.0024434609804302454
1747275455448937000,14.59793701171875,0.005497787147760391,0.0024434609804302454,-0.00427605677396059
1747275455464969200,14.61396923828125,0.00733038317412138,0.00366519158706069,-0.00366519158706069
1747275455480975600,14.6299755859375,0.00733038317412138,0.003054326167330146,-0.00366519158706069
1747275455497003500,14.64600341796875,0.005497787147760391,0.003054326167330146,-0.003054326167330146
1747275455513005000,14.662005126953124,0.005497787147760391,0.0012217304902151227,-0.005497787147760391
1747275455529047600,14.678047607421876,0.007941247895359993,0.00366519158706069,-0.0024434609804302454
1747275455545078500,14.69407861328125,0.007941247895359993,0.0006108652451075613,-0.00366519158706069
1747275455561084200,14.710084228515624,0.006719517521560192,0.003054326167330146,-0.00366519158706069
1747275455577125600,14.726125732421876,0.006108652334660292,0.003054326167330146,-0.0024434609804302454
1747275455593126400,14.74212646484375,0.00733038317412138,0.0024434609804302454,-0.00366519158706069
1747275455609173500,14.758173583984375,0.005497787147760391,0.0012217304902151227,-0.00427605677396059
1747275455625202200,14.7742021484375,0.006108652334660292,0.003054326167330146,-0.003054326167330146
1747275455641250000,14.79025,0.005497787147760391,0.00366519158706069,-0.003054326167330146
1747275455657283800,14.806283935546874,0.006719517521560192,0.003054326167330146,-0.007941247895359993
1747275455673284600,14.82228466796875,0.006719517521560192,0.0024434609804302454,-0.004886921960860491
1747275455689324300,14.83832421875,0.00733038317412138,0.003054326167330146,-0.004886921960860491
1747275455705353200,14.854353271484374,0.006719517521560192,0.00366519158706069,-0.003054326167330146
1747275455721359000,14.870359130859375,0.006719517521560192,0.0024434609804302454,-0.003054326167330146
1747275455737410300,14.886410400390625,0.005497787147760391,0.00366519158706069,-0.00366519158706069
1747275455753410800,14.902410888671875,0.006108652334660292,0.00427605677396059,-0.003054326167330146
1747275455769448700,14.91844873046875,0.006719517521560192,0.001832595793530345,-0.001832595793530345
1747275455785474000,14.93447412109375,0.006108652334660292,0.0024434609804302454,-0.00427605677396059
1747275455801478100,14.95047802734375,0.00733038317412138,0.001832595793530345,-0.001832595793530345
1747275455817507800,14.9665078125,0.006108652334660292,0.001832595793530345,-0.00427605677396059
1747275455833505500,14.982505615234375,0.005497787147760391,0.001832595793530345,-0.001832595793530345
1747275455849548300,14.99854833984375,0.006108652334660292,0.003054326167330146,-0.00366519158706069
1747275455865576200,15.014576171875,0.00733038317412138,0.0024434609804302454,-0.00366519158706069
1747275455881584000,15.030584228515625,0.006719517521560192,0.003054326167330146,-0.003054326167330146
1747275455897628700,15.046628662109375,0.005497787147760391,0.0024434609804302454,-0.003054326167330146
1747275455913625300,15.062625244140625,0.006108652334660292,0.0012217304902151227,-0.004886921960860491
1747275455929667600,15.07866748046875,0.006719517521560192,0.003054326167330146,-0.003054326167330146
1747275455945697500,15.094697509765625,0.006719517521560192,0.00366519158706069,-0.003054326167330146
1747275455961704700,15.11070458984375,0.004886921960860491,0.003054326167330146,-0.0024434609804302454
1747275455977732600,15.126732666015625,0.006719517521560192,0.001832595793530345,-0.003054326167330146
1747275455993731800,15.14273193359375,0.006719517521560192,0.003054326167330146,-0.0012217304902151227
1747275456009775600,15.158775634765625,0.006719517521560192,0.0012217304902151227,-0.003054326167330146
1747275456025809000,15.174808837890625,0.006719517521560192,0.001832595793530345,-0.0024434609804302454
1747275456041820700,15.190820556640626,0.006108652334660292,0.0024434609804302454,-0.00366519158706069
1747275456057874200,15.206874267578126,0.009162978269159794,0.00427605677396059,-0.0024434609804302454
1747275456073873700,15.222873779296876,0.006719517521560192,0.003054326167330146,-0.00366519158706069
1747275456089918200,15.238918212890624,0.00855211354792118,0.00366519158706069,-0.00427605677396059
1747275456105950000,15.254949951171875,0.006719517521560192,0.00366519158706069,-0.00427605677396059
1747275456121955300,15.270955322265625,0.006108652334660292,0.01466076634824276,-0.012217304669320583
1747275456137982000,15.28698193359375,0.006719517521560192,0.01038470957428217,-0.013439035043120384
1747275456153981400,15.3029814453125,0.006108652334660292,0.0012217304902151227,0.0012217304902151227
1747275456170022000,15.31902197265625,0.007941247895359993,0.0006108652451075613,-0.00366519158706069
1747275456186059500,15.3350595703125,0.004886921960860491,0.0006108652451075613,-0.0024434609804302454
1747275456202064400,15.351064453125,0.00427605677396059,-0.004886921960860491,0.0024434609804302454
1747275456218122000,15.3671220703125,0.007941247895359993,0.0006108652451075613,-0.001832595793530345
1747275456234122800,15.383122802734375,0.006719517521560192,0.007941247895359993,-0.006108652334660292
1747275456250166300,15.399166259765625,0.006719517521560192,0.006719517521560192,-0.006108652334660292
1747275456266196700,15.41519677734375,0.006719517521560192,0.005497787147760391,-0.009162978269159794
1747275456282205400,15.431205322265624,0.006108652334660292,0.0012217304902151227,-0.00427605677396059
1747275456298235100,15.447235107421875,0.007941247895359993,-0.0012217304902151227,0.0006108652451075613
1747275456314233300,15.4632333984375,0.006108652334660292,-0.00366519158706069,0.001832595793530345
1747275456330296000,15.479296142578125,0.005497787147760391,0.0024434609804302454,-0.00427605677396059
1747275456346322200,15.495322265625,0.005497787147760391,0.0024434609804302454,-0.005497787147760391
1747275456362330400,15.511330322265625,0.006719517521560192,0.006108652334660292,-0.006108652334660292
1747275456378390800,15.527390869140625,0.004886921960860491,0.007941247895359993,-0.006719517521560192
1747275456394393600,15.5433935546875,0.006719517521560192,0.0024434609804302454,-0.00366519158706069
1747275456410436600,15.5594365234375,0.004886921960860491,-0.0024434609804302454,0.001832595793530345
1747275456426466600,15.575466552734374,0.006108652334660292,-0.0012217304902151227,0.0006108652451075613
1747275456442476300,15.591476318359375,0.006719517521560192,-0.0024434609804302454,-0.0006108652451075613
1747275456458507800,15.6075078125,0.004886921960860491,0.003054326167330146,-0.00427605677396059
1747275456474506800,15.6235068359375,0.006719517521560192,0.01038470957428217,-0.00733038317412138
1747275456490548200,15.63954833984375,0.007941247895359993,0.006719517521560192,-0.006108652334660292
1747275456506574600,15.65557470703125,0.00733038317412138,0.003054326167330146,-0.005497787147760391
1747275456522582000,15.67158203125,0.005497787147760391,0.0006108652451075613,-0.00427605677396059
1747275456538645000,15.68764501953125,0.005497787147760391,-0.00366519158706069,0.0012217304902151227
1747275456554644500,15.70364453125,0.006719517521560192,-0.0012217304902151227,0.0006108652451075613
1747275456570688300,15.719688232421875,0.006108652334660292,0.003054326167330146,-0.003054326167330146
1747275456586717000,15.735717041015626,0.006108652334660292,0.00427605677396059,-0.006719517521560192
1747275456602721000,15.751720947265625,0.004886921960860491,0.006719517521560192,-0.00427605677396059
1747275456618747100,15.7677470703125,0.003054326167330146,0.004886921960860491,-0.003054326167330146
1747275456634743600,15.78374365234375,-0.05925392732024193,0.003054326167330146,0.0024434609804302454
1747275456650773500,15.7997734375,-0.6914994716644287,-0.003054326167330146,-0.005497787147760391
1747275456666793500,15.81579345703125,-0.7574729323387146,0.0006108652451075613,0.0024434609804302454
1747275456682799900,15.8317998046875,-0.2932153046131134,0.003054326167330146,0.006719517521560192
1747275456698854700,15.847854736328125,-0.11484266817569733,0.018936822190880775,0.04581489413976669
1747275456714846700,15.8638466796875,-0.04092797264456749,-0.029932396486401558,0.1966986060142517
1747275456730883300,15.87988330078125,0.06230825558304787,-0.07757988572120667,0.23457226157188416
1747275456746908700,15.89590869140625,0.252287358045578,-0.06963863968849182,0.19792033731937408
1747275456762914300,15.911914306640625,0.37140607833862305,-0.010995574295520782,0.14966198801994324
1747275456778942500,15.9279423828125,0.394618958234787,-0.02687807008624077,0.1362229436635971
1747275456794940200,15.943940185546875,0.2987131178379059,0.09896016865968704,0.26511552929878235
1747275456810978800,15.959978759765624,0.20097467303276062,0.0806342139840126,0.4105014503002167
1747275456826995700,15.97599560546875,-0.031154127791523933,-0.5009095072746277,0.4697553813457489
1747275456843005400,15.99200537109375,-0.24495697021484375,-1.2889256477355957,0.4697553813457489
1747275456859069400,16.0080693359375,-0.09957103431224823,-1.6975945234298706,0.5174028873443604
1747275456875102000,16.02410205078125,0.2370157092809677,-1.9370536804199219,0.4306600093841553
1747275456891122400,16.040122314453125,0.22663100063800812,-2.4520130157470703,-0.033597588539123535
1747275456907182800,16.056182861328125,-0.21930062770843506,-2.8154778480529785,-0.645684540271759
1747275456923190500,16.0721904296875,-0.44104471802711487,-3.0561587810516357,-1.4062118530273438
1747275456939213600,16.088213623046876,-0.5558874011039734,-2.9101619720458984,-1.626123309135437
1747275456955243300,16.1042431640625,-0.29016098380088806,-3.400686740875244,-1.5234979391098022
1747275456971264800,16.1202646484375,0.49785518646240234,-4.059199333190918,-1.218676209449768
1747275456987324400,16.136324462890624,0.9944885969161987,-4.63891077041626,-1.1301007270812988
1747275457003330300,16.152330322265627,1.0580185651779175,-5.830708980560303,-1.528384804725647
1747275457019381500,16.168381591796877,0.9737191796302795,-6.334061622619629,-2.074498414993286
1747275457035367700,16.18436767578125,0.9938777685165405,-6.455624103546143,-2.8875601291656494
1747275457051391500,16.2003916015625,1.2516628503799438,-6.607118606567383,-3.36098051071167
1747275457067450400,16.216450439453126,1.23394775390625,-6.621168613433838,-3.6920695304870605
1747275457083455200,16.232455322265626,1.1050552129745483,-6.785490989685059,-3.765373468399048
1747275457099480800,16.248480712890625,1.291369080543518,-6.597344875335693,-3.6926803588867188
1747275457115464000,16.2644638671875,1.7892242670059204,-5.942497253417969,-3.486207962036133
1747275457131486500,16.280486572265627,2.0971004962921143,-5.123937606811523,-3.324328660964966
1747275457147547100,16.296547119140627,2.205223560333252,-3.8570032119750977,-3.246748685836792
1747275457163552300,16.31255224609375,1.9883663654327393,-2.015855312347412,-3.305391788482666
1747275457179605200,16.328605224609376,1.8576412200927734,-1.2596040964126587,-3.397632598876953
1747275457195635700,16.3446357421875,1.5974125862121582,-1.1997393369674683,-3.4440581798553467
1747275457211659800,16.36065966796875,0.9865473508834839,-1.700037956237793,-3.2736268043518066
1747275457227719700,16.3767197265625,0.3280346393585205,-2.2284364700317383,-2.987131118774414
1747275457243725600,16.3927255859375,-0.2828305959701538,-2.883894920349121,-2.5784621238708496
1747275457259752000,16.408751953125,-0.3995058834552765,-2.7403414249420166,-2.3829853534698486
1747275457275740200,16.424740234375,-0.23273965716362,-1.9645426273345947,-2.1905627250671387
1747275457291769600,16.44076953125,0.22907446324825287,-1.208902359008789,-1.99752938747406
1747275457307784200,16.4567841796875,0.616973876953125,-0.5216789245605469,-1.8973474502563477
1747275457323834600,16.472834716796875,0.940121591091156,0.34086281061172485,-1.7861700057983398
1747275457339905300,16.4889052734375,1.076344609260559,0.7367035150527954,-1.6872098445892334
1747275457355908900,16.504908935546876,1.3347405195236206,1.2260065078735352,-1.519832730293274
1747275457371951400,16.520951416015624,1.5809192657470703,1.370781660079956,-1.378722906112671
1747275457387985700,16.536985595703126,1.680490255355835,1.3829989433288574,-1.2400563955307007
1747275457403990000,16.552989990234376,1.6884315013885498,1.3842206001281738,-1.131933331489563
1747275457420040200,16.569040283203126,1.6994271278381348,1.4618005752563477,-1.0922271013259888
1747275457436044500,16.58504443359375,1.7458528280258179,1.8674150705337524,-1.015868902206421
1747275457452085200,16.601085205078125,1.9492709636688232,2.059837579727173,-0.8924741148948669
1747275457468142800,16.617142822265624,2.0451767444610596,1.567480206489563,-0.42760565876960754
1747275457484145000,16.633144775390626,1.8765780925750732,0.9144652485847473,0.2370157092809677
1747275457500205300,16.649205322265626,1.665218710899353,0.5815436840057373,0.5711590051651001
1747275457516247800,16.665247802734374,1.3817771673202515,0.29504790902137756,0.8509352803230286
1747275457532272400,16.6812724609375,1.1618657112121582,0.3995058834552765,1.0641272068023682
1747275457548325000,16.6973251953125,1.3976596593856812,0.252287358045578,1.4049900770187378
1747275457564325600,16.71332568359375,1.718363881111145,0.5913175344467163,1.7531832456588745
1747275457580347100,16.72934716796875,1.5515977144241333,0.49357911944389343,1.813048005104065
1747275457596372500,16.74537255859375,1.2125675678253174,0.7055493593215942,1.824654459953308
1747275457612430800,16.761430908203124,0.9150761365890503,0.7128797173500061,1.5210545063018799
1747275457628441900,16.77744189453125,0.6524040699005127,1.1368201971054077,0.9083566069602966
1747275457644442000,16.793442138671875,0.1722639948129654,0.9859365224838257,-0.2174680233001709
1747275457660503300,16.80950341796875,-0.042760565876960754,0.375071257352829,-0.6096435189247131
1747275457676511000,16.825510986328126,0.14294247329235077,-0.2431243658065796,-0.8038986921310425
1747275457692537900,16.841537841796875,0.5259549617767334,-0.9682214260101318,-0.826500654220581
1747275457708595700,16.857595703125,1.1997393369674683,-1.5968017578125,-0.8014551997184753
1747275457724598000,16.873597900390624,1.9437731504440308,-1.8069393634796143,-0.7965682744979858
1747275457740582100,16.88958203125,2.2577579021453857,-1.9022343158721924,-0.8796459436416626
1747275457756568300,16.905568359375,2.6340508460998535,-2.0622811317443848,-1.1227703094482422
1747275457772586000,16.9215859375,2.6700918674468994,-2.152078151702881,-1.313360333442688
1747275457788601600,16.9376015625,2.5552492141723633,-1.9932533502578735,-1.547932505607605
1747275457804604000,16.95360400390625,2.3017401695251465,-1.8448129892349243,-1.50211763381958
1747275457820671200,16.969671142578125,2.1087067127227783,-1.6438384056091309,-1.3842206001281738
1747275457836657000,16.985656982421876,1.884519338607788,-1.3720033168792725,-1.1655309200286865
1747275457852684800,17.001684814453125,1.5161675214767456,-1.0421360731124878,-0.8704829812049866
1747275457868701200,17.017701171875,1.2473868131637573,-0.7409795522689819,-0.6328563690185547
1747275457884702500,17.033702392578125,1.0586295127868652,-0.37262779474258423,-0.5577199459075928
1747275457900726500,17.0497265625,1.0170906782150269,-0.2626720666885376,-0.6902777552604675
1747275457916709600,17.065709716796874,0.9395107626914978,-0.2480112910270691,-0.9382890462875366
1747275457932737800,17.08173779296875,0.8827002644538879,-0.3323107063770294,-1.081842303276062
1747275457948753000,17.0977529296875,0.8436049222946167,-0.4178318381309509,-1.0280861854553223
1747275457964756200,17.113756103515627,0.8820894360542297,-0.4398229718208313,-0.8527678847312927
1747275457980776700,17.129776611328126,1.0702359676361084,-0.5271766781806946,-1.4049900770187378
1747275457996769000,17.14576904296875,1.1001683473587036,-0.6817256212234497,-1.3329079151153564
1747275458012801000,17.161801025390623,1.1160508394241333,-0.4862487316131592,-1.2327260971069336
1747275458028834000,17.177833984375,0.9871582388877869,-0.2981022298336029,-1.1001683473587036
1747275458044834800,17.193834716796875,0.7745771408081055,-0.26939156651496887,-1.0482447147369385
1747275458060861000,17.20986083984375,0.7214318513870239,-0.27000242471694946,-1.0421360731124878
1747275458076883700,17.2258837890625,0.5314527750015259,-0.47219884395599365,-1.0207557678222656
1747275458092950800,17.24195068359375,0.28955012559890747,-0.16432274878025055,-1.2877039909362793
1747275458108970200,17.25797021484375,-0.21807889640331268,-0.3830125033855438,-1.1899654865264893
1747275458124973000,17.27397314453125,-0.5461135506629944,-0.303600013256073,-1.226617455482483
1747275458141010700,17.2900107421875,-0.6096435189247131,-0.22357667982578278,-1.2602150440216064
1747275458156998100,17.305998046875,-0.41599923372268677,-0.3243694305419922,-1.3029755353927612
1747275458173020400,17.3220205078125,-0.060475658625364304,-0.14416420459747314,-1.2944234609603882
1747275458188989700,17.33798974609375,0.08552113175392151,-0.06291911751031876,-1.3145819902420044
1747275458204991700,17.35399169921875,-0.07147123664617538,-0.25473082065582275,-1.3836097717285156
1747275458221018000,17.37001806640625,-0.11789698898792267,-0.2938261926174164,-1.4697418212890625
1747275458237003300,17.386003173828126,-0.12400564551353455,-0.294437050819397,-1.6811012029647827
1747275458253017000,17.40201708984375,-0.05864306539297104,0.9633345007896423,0.33536502718925476
1747275458269078300,17.418078369140623,0.06414084881544113,-0.009162978269159794,0.15515977144241333
1747275458285080800,17.434080810546874,0.05742133408784866,0.11301007121801376,0.2119702398777008
1747275458301105700,17.450105712890625,0.009162978269159794,-0.05375614017248154,-0.1264491081237793
1747275458317197300,17.466197265625,0.025045474991202354,0.030543262138962746,0.07208210229873657
1747275458333208000,17.4822080078125,0.009773843921720982,-0.012828170321881771,-0.033597588539123535
1747275458349217300,17.49821728515625,0.015882495790719986,-0.018325956538319588,-0.0354301854968071
1747275458365217800,17.5142177734375,0.01038470957428217,0.01160643994808197,0.01466076634824276
1747275458381243000,17.530242919921875,0.007941247895359993,0.0024434609804302454,-0.00733038317412138
1747275458397244700,17.54624462890625,0.00366519158706069,-0.0006108652451075613,-0.02015855349600315
1747275458413285400,17.562285400390625,0.00366519158706069,0.009162978269159794,0.001832595793530345
1747275458429313300,17.578313232421873,-0.04703662544488907,0.04703662544488907,-0.045204028487205505
1747275458445314800,17.594314697265624,-0.09957103431224823,0.04459316283464432,-0.10201449692249298
1747275458461357600,17.610357666015624,-0.10690141469240189,0.0006108652451075613,-0.14905111491680145
1747275458477359900,17.62635986328125,-0.11239920556545258,-0.06108652427792549,-0.24678955972194672
1747275458493403600,17.642403564453126,-0.19975294172763824,0.24373523890972137,-0.21563543379306793
1747275458509435600,17.658435546875,0.08552113175392151,-0.010995574295520782,-0.3927863538265228
1747275458525439700,17.674439697265626,0.05375614017248154,-0.21074850857257843,-0.5418374538421631
1747275458541469700,17.6904697265625,0.009773843921720982,-0.2590068578720093,-0.3396410644054413
1747275458557500700,17.706500732421876,-0.03848451003432274,-0.14355333149433136,-0.6475171446800232
1747275458573518600,17.7225185546875,-0.012217304669320583,0.1569923609495163,-0.59803706407547
1747275458589579500,17.73857958984375,0.015882495790719986,-0.04153883829712868,-0.4440990388393402
1747275458605583600,17.75458349609375,0.028099801391363144,0.03848451003432274,-0.49846604466438293
1747275458621617400,17.770617431640623,0.09346238523721695,-0.1362229436635971,-0.5167919993400574
1747275458637646800,17.786646728515624,0.04398229718208313,0.04703662544488907,-0.19975294172763824
1747275458653666000,17.802666015625,-0.007941247895359993,0.01466076634824276,-0.028099801391363144
1747275458669728500,17.818728515625,-0.05009094998240471,-0.01771509274840355,-0.03726277872920036
1747275458685736000,17.83473583984375,0.00427605677396059,-0.00733038317412138,-0.02321287989616394
1747275458701766400,17.850766357421875,0.01038470957428217,-0.001832595793530345,0.00855211354792118
1747275458717754000,17.866754150390626,0.012828170321881771,-0.003054326167330146,0.009773843921720982
1747275458733800700,17.88280078125,0.006108652334660292,0.004886921960860491,-0.005497787147760391
1747275458749833700,17.898833740234377,0.005497787147760391,0.006108652334660292,-0.00733038317412138
1747275458765837300,17.91483740234375,0.00366519158706069,0.00366519158706069,-0.006108652334660292
1747275458781895200,17.930895263671875,0.005497787147760391,0.0012217304902151227,-0.0024434609804302454
1747275458797896700,17.946896728515625,0.027488935738801956,0.015882495790719986,-0.00855211354792118
1747275458813942000,17.96294189453125,0.036651913076639175,0.02871066704392433,-0.012217304669320583
1747275458829979100,17.978979248046876,0.03298672288656235,0.025045474991202354,-0.016493361443281174
1747275458845981400,17.9949814453125,0.02382374368607998,0.02321287989616394,-0.015271631069481373
1747275458862008000,18.011008056640627,0.027488935738801956,0.027488935738801956,-0.016493361443281174
1747275458878013200,18.02701318359375,0.039706241339445114,0.022602014243602753,-0.025656340643763542
1747275458894058500,18.04305859375,0.03787364438176155,0.03848451003432274,-0.0354301854968071
1747275458910089700,18.05908984375,0.029932396486401558,0.029932396486401558,-0.04948008432984352
1747275458926097000,18.075096923828124,0.0354301854968071,0.06780604273080826,-0.08307767659425735
1747275458942162000,18.091161865234376,0.04337143152952194,0.09896016865968704,-0.09040805697441101
1747275458958168300,18.107168212890624,0.00427605677396059,0.08185594528913498,-0.05253441259264946
1747275458974220000,18.123219970703126,0.00427605677396059,0.03298672288656235,-0.021380282938480377
1747275458990257200,18.139257080078124,0.004886921960860491,0.015882495790719986,-0.00855211354792118
1747275459006283500,18.155283447265624,0.00427605677396059,0.00733038317412138,-0.00427605677396059
1747275459022315300,18.171315185546874,0.006108652334660292,0.015882495790719986,-0.01038470957428217
1747275459038324200,18.18732421875,0.006719517521560192,0.001832595793530345,-0.00427605677396059
1747275459054403800,18.20340380859375,0.007941247895359993,-0.003054326167330146,-0.00366519158706069
1747275459070433800,18.219433837890627,0.00733038317412138,-0.001832595793530345,-0.001832595793530345
1747275459086442200,18.235442138671875,0.006719517521560192,0.003054326167330146,-0.0024434609804302454
1747275459102517200,18.251517333984374,0.004886921960860491,0.012217304669320583,-0.00855211354792118
1747275459118519800,18.267519775390625,0.006719517521560192,0.01038470957428217,-0.005497787147760391
1747275459134565400,18.2835654296875,0.006108652334660292,0.01038470957428217,-0.005497787147760391
1747275459150599200,18.29959912109375,0.004886921960860491,0.00366519158706069,-0.0024434609804302454
1747275459166606000,18.315606201171875,0.006108652334660292,0.003054326167330146,-0.003054326167330146
1747275459182633700,18.3316337890625,0.00366519158706069,0.018325956538319588,-0.010995574295520782
1747275459198632200,18.347632080078125,0.006719517521560192,0.005497787147760391,-0.00366519158706069
1747275459214680800,18.363680908203126,0.006108652334660292,0,-0.001832595793530345
1747275459230713600,18.379713623046875,0.006108652334660292,0.0006108652451075613,-0.004886921960860491
1747275459246733300,18.3957333984375,0.005497787147760391,0.004886921960860491,-0.00366519158706069
1747275459262755600,18.411755615234377,0.00855211354792118,0.006719517521560192,-0.006108652334660292
1747275459278756900,18.4277568359375,0.007941247895359993,0.00366519158706069,-0.001832595793530345
1747275459294802700,18.443802734375,0.00733038317412138,0.0012217304902151227,-0.001832595793530345
1747275459310831900,18.459831787109376,0.007941247895359993,0.0024434609804302454,-0.005497787147760391
1747275459326835700,18.475835693359375,0.00733038317412138,0.006108652334660292,-0.004886921960860491
1747275459342893600,18.4918935546875,0.005497787147760391,0.0024434609804302454,-0.003054326167330146
1747275459358897200,18.507897216796874,0.006108652334660292,0.00366519158706069,-0.001832595793530345
1747275459374947000,18.523947021484375,0.00733038317412138,0.0012217304902151227,-0.00366519158706069
1747275459390980600,18.539980712890625,0.006108652334660292,0.0024434609804302454,-0.00427605677396059
1747275459406984700,18.555984619140624,0.004886921960860491,0.003054326167330146,-0.003054326167330146
1747275459423013000,18.57201318359375,0.006719517521560192,0.0012217304902151227,-0.00366519158706069
1747275459439020000,18.58802001953125,0.004886921960860491,0.003054326167330146,-0.00427605677396059
1747275459455065900,18.60406591796875,0.006108652334660292,0.003054326167330146,-0.003054326167330146
1747275459471098000,18.62009814453125,0.00733038317412138,0.0012217304902151227,-0.00366519158706069
1747275459487105800,18.636105712890625,0.005497787147760391,0.0024434609804302454,-0.001832595793530345
1747275459503135200,18.65213525390625,0.00733038317412138,0.0024434609804302454,-0.00366519158706069
1747275459519143400,18.668143310546874,0.005497787147760391,0.0012217304902151227,-0.00427605677396059
1747275459535215400,18.68421533203125,0.006719517521560192,0.004886921960860491,-0.00366519158706069
1747275459551245800,18.700245849609374,0.00366519158706069,0.003054326167330146,-0.00427605677396059
1747275459567252500,18.71625244140625,0.006108652334660292,0.003054326167330146,-0.0024434609804302454
1747275459583284500,18.732284423828126,0.005497787147760391,0.00366519158706069,-0.00366519158706069
1747275459599288000,18.7482880859375,0.006719517521560192,0.0024434609804302454,-0.003054326167330146
1747275459615337000,18.7643369140625,0.00855211354792118,0.0024434609804302454,-0.003054326167330146
1747275459631374600,18.78037451171875,0.00733038317412138,0.0024434609804302454,-0.003054326167330146
1747275459647385000,18.796385009765626,0.006108652334660292,0.003054326167330146,-0.00427605677396059
1747275459663415800,18.812415771484375,0.006108652334660292,0.0024434609804302454,-0.00366519158706069
1747275459679418600,18.828418701171874,0.006108652334660292,0.00427605677396059,-0.003054326167330146
1747275459695469600,18.844469482421875,0.006719517521560192,0.0024434609804302454,-0.00427605677396059
1747275459711504400,18.86050439453125,0.006108652334660292,0.0006108652451075613,-0.00366519158706069
1747275459727525600,18.876525634765624,0.006719517521560192,0.003054326167330146,-0.0024434609804302454
1747275459743560700,18.892560791015626,0.006719517521560192,0.003054326167330146,-0.00366519158706069
1747275459759567000,18.908567138671874,0.006719517521560192,0.00366519158706069,-0.00366519158706069
1747275459775617000,18.924616943359375,0.006108652334660292,0.004886921960860491,-0.00366519158706069
1747275459791655000,18.940655029296874,0.005497787147760391,0.003054326167330146,-0.00366519158706069
1747275459807665200,18.9566650390625,0.005497787147760391,0.0024434609804302454,-0.004886921960860491
1747275459823730700,18.972730712890623,0.007941247895359993,0.0024434609804302454,-0.00427605677396059
1747275459839736800,18.98873681640625,0.005497787147760391,0.0024434609804302454,-0.0024434609804302454
1747275459855782700,19.00478271484375,0.004886921960860491,0.00366519158706069,-0.00427605677396059
1747275459871818200,19.020818359375,0.006108652334660292,0.00427605677396059,-0.00366519158706069
1747275459887825400,19.036825439453125,0.006108652334660292,0.00366519158706069,-0.00427605677396059
1747275459903869400,19.052869384765625,0.00733038317412138,0.003054326167330146,-0.00427605677396059
1747275459919878000,19.0688779296875,0.007941247895359993,0.001832595793530345,-0.00427605677396059
1747275459935927000,19.084927001953126,0.007941247895359993,0.003054326167330146,-0.003054326167330146
1747275459951964000,19.1009638671875,0.005497787147760391,0.0024434609804302454,-0.003054326167330146
1747275459967969000,19.116968994140624,0.006108652334660292,0.00427605677396059,-0.00427605677396059
1747275459983996400,19.132996337890624,0.005497787147760391,0.00427605677396059,-0.00427605677396059
1747275459999999200,19.148999267578127,0.005497787147760391,0.00366519158706069,-0.00366519158706069
1747275460016076000,19.165075927734375,0.006108652334660292,0.00427605677396059,-0.00366519158706069
1747275460032115500,19.181115478515625,0.004886921960860491,0.00366519158706069,-0.003054326167330146
1747275460048128000,19.1971279296875,0.00733038317412138,0.003054326167330146,-0.0024434609804302454
1747275460064171800,19.213171875,0.006108652334660292,0.00366519158706069,-0.003054326167330146
1747275460080175000,19.229175048828125,0.006719517521560192,0.003054326167330146,-0.00366519158706069
1747275460096221200,19.24522119140625,0.006108652334660292,0.001832595793530345,-0.003054326167330146
1747275460112252700,19.261252685546875,0.006108652334660292,0.003054326167330146,-0.00427605677396059
1747275460128256000,19.277256103515626,0.006719517521560192,0.001832595793530345,-0.00366519158706069
1747275460144285000,19.293284912109375,0.006719517521560192,0.0024434609804302454,-0.0024434609804302454
1747275460160294000,19.3092939453125,0.006108652334660292,0.001832595793530345,-0.00366519158706069
