time,seconds_elapsed,z,y,x
1747275440918546400,0.06754638671875,9.897629737854004,-0.1628057211637497,0.09816227108240128
1747275440934578000,0.083577880859375,9.897629737854004,-0.14365209639072418,0.10773907601833344
1747275440950592300,0.09959228515625,9.892841339111328,-0.13407529890537262,0.10295066982507706
1747275440966611200,0.115611083984375,9.909601211547852,-0.1364694982767105,0.12449848651885986
1747275440982604800,0.131604736328125,9.897629737854004,-0.1364694982767105,0.11013327538967133
1747275440998677000,0.147677001953125,9.904812812805176,-0.1388636976480484,0.13168109953403473
1747275441014715100,0.163715087890625,9.907206535339355,-0.15322890877723694,0.11971008777618408
1747275441030732000,0.17973193359375,9.904812812805176,-0.14365209639072418,0.10773907601833344
1747275441046778400,0.1957783203125,9.9000244140625,-0.15801730751991272,0.10055647045373917
1747275441062800000,0.2117998046875,9.897629737854004,-0.13407529890537262,0.12928688526153564
1747275441078862800,0.22786279296875,9.892841339111328,-0.15083470940589905,0.1149216815829277
1747275441094897700,0.243897705078125,9.895236015319824,-0.15322890877723694,0.12928688526153564
1747275441110915800,0.259915771484375,9.904812812805176,-0.16519992053508759,0.10055647045373917
1747275441126922500,0.275922607421875,9.907206535339355,-0.1388636976480484,0.10534487664699554
1747275441142925000,0.291925048828125,9.909601211547852,-0.15801730751991272,0.10534487664699554
1747275441158950700,0.30795068359375,9.911994934082031,-0.15322890877723694,0.1149216815829277
1747275441174987000,0.323987060546875,9.911994934082031,-0.12449848651885986,0.1149216815829277
1747275441191007700,0.3400078125,9.897629737854004,-0.1364694982767105,0.11971008777618408
1747275441207055400,0.356055419921875,9.9000244140625,-0.15801730751991272,0.090979665517807
1747275441223051300,0.37205126953125,9.897629737854004,-0.15562310814857483,0.10295066982507706
1747275441239123200,0.388123291015625,9.895236015319824,-0.1604115068912506,0.11971008777618408
1747275441255191800,0.40419189453125,9.890447616577148,-0.1388636976480484,0.11252748221158981
1747275441271212000,0.4202119140625,9.916783332824707,-0.14604631066322327,0.1173158809542656
1747275441287252000,0.436251953125,9.911994934082031,-0.14604631066322327,0.1173158809542656
1747275441303254800,0.4522548828125,9.907206535339355,-0.15322890877723694,0.09576806426048279
1747275441319312000,0.468311767578125,9.888052940368652,-0.1604115068912506,0.10055647045373917
1747275441335341300,0.48434130859375,9.892841339111328,-0.15322890877723694,0.10055647045373917
1747275441351361000,0.500361083984375,9.907206535339355,-0.15083470940589905,0.09816227108240128
1747275441367368200,0.5163681640625,9.892841339111328,-0.14365209639072418,0.10295066982507706
1747275441383360500,0.532360595703125,9.895236015319824,-0.12449848651885986,0.10295066982507706
1747275441399392800,0.548392822265625,9.911994934082031,-0.15562310814857483,0.1149216815829277
1747275441415431200,0.56443115234375,9.909601211547852,-0.15322890877723694,0.12928688526153564
1747275441431452200,0.5804521484375,9.873687744140625,-0.1364694982767105,0.11013327538967133
1747275441447531000,0.596531005859375,9.909601211547852,-0.1628057211637497,0.10055647045373917
1747275441463539200,0.612539306640625,9.909601211547852,-0.1364694982767105,0.09816227108240128
1747275441479610000,0.628610107421875,9.911994934082031,-0.12928688526153564,0.10295066982507706
1747275441495648300,0.644648193359375,9.892841339111328,-0.14604631066322327,0.11013327538967133
1747275441511670000,0.660669921875,9.904812812805176,-0.14844051003456116,0.11252748221158981
1747275441527718100,0.67671826171875,9.890447616577148,-0.15801730751991272,0.10295066982507706
1747275441543736300,0.692736328125,9.926360130310059,-0.14604631066322327,0.1149216815829277
1747275441559805000,0.708804931640625,9.904812812805176,-0.1388636976480484,0.12689268589019775
1747275441575846000,0.724845947265625,9.888052940368652,-0.15083470940589905,0.10055647045373917
1747275441591866400,0.740866455078125,9.904812812805176,-0.15562310814857483,0.10055647045373917
1747275441607873000,0.756873046875,9.895236015319824,-0.14365209639072418,0.11013327538967133
1747275441623884800,0.772884765625,9.907206535339355,-0.13407529890537262,0.090979665517807
1747275441639975000,0.788974853515625,9.916783332824707,-0.1388636976480484,0.10773907601833344
1747275441656011000,0.805010986328125,9.876082420349121,-0.15083470940589905,0.08858546614646912
1747275441672030500,0.821030517578125,9.8784761428833,-0.16998831927776337,0.11013327538967133
1747275441688075000,0.837074951171875,9.9000244140625,-0.1628057211637497,0.11013327538967133
1747275441704066600,0.853066650390625,9.885659217834473,-0.1628057211637497,0.10534487664699554
1747275441720135400,0.869135498046875,9.919178009033203,-0.13168109953403473,0.10534487664699554
1747275441736186000,0.88518603515625,9.911994934082031,-0.12928688526153564,0.13168109953403473
1747275441752208000,0.901207763671875,9.90241813659668,-0.15562310814857483,0.11013327538967133
1747275441768256800,0.9172568359375,9.914389610290527,-0.1628057211637497,0.1173158809542656
1747275441784273400,0.9332734375,9.873687744140625,-0.14365209639072418,0.11252748221158981
1747275441800340200,0.94934033203125,9.864110946655273,-0.16519992053508759,0.11252748221158981
1747275441816380000,0.9653798828125,9.909601211547852,-0.15083470940589905,0.10295066982507706
1747275441832401200,0.981401123046875,9.923966407775879,-0.1388636976480484,0.08140286058187485
1747275441848405200,0.9974052734375,9.907206535339355,-0.15083470940589905,0.09816227108240128
1747275441864399600,1.013399658203125,9.909601211547852,-0.13407529890537262,0.11013327538967133
1747275441880427500,1.029427490234375,9.876082420349121,-0.1412578970193863,0.09576806426048279
1747275441896466400,1.045466552734375,9.888052940368652,-0.1628057211637497,0.11013327538967133
1747275441912488700,1.06148876953125,9.90241813659668,-0.16519992053508759,0.0933738648891449
1747275441928561000,1.077560791015625,9.904812812805176,-0.1604115068912506,0.10773907601833344
1747275441944573700,1.09357373046875,9.916783332824707,-0.1173158809542656,0.1173158809542656
1747275441960644400,1.109644287109375,9.914389610290527,-0.13168109953403473,0.11013327538967133
1747275441976682500,1.1256826171875,9.931148529052734,-0.14844051003456116,0.1149216815829277
1747275441992704000,1.1417041015625,9.871294021606445,-0.15083470940589905,0.10534487664699554
1747275442008761300,1.15776123046875,9.86889934539795,-0.16519992053508759,0.10055647045373917
1747275442024803300,1.17380322265625,9.90241813659668,-0.15562310814857483,0.0933738648891449
1747275442040871200,1.18987109375,9.880870819091797,-0.14844051003456116,0.1149216815829277
1747275442056911400,1.205911376953125,9.907206535339355,-0.14844051003456116,0.1173158809542656
1747275442072926200,1.22192626953125,9.914389610290527,-0.12449848651885986,0.12449848651885986
1747275442088927000,1.237927001953125,9.895236015319824,-0.14365209639072418,0.1173158809542656
1747275442104944000,1.253944091796875,9.907206535339355,-0.14844051003456116,0.1173158809542656
1747275442120971800,1.2699716796875,9.8784761428833,-0.1388636976480484,0.12689268589019775
1747275442137011500,1.286011474609375,9.8784761428833,-0.15562310814857483,0.1173158809542656
1747275442153027600,1.302027587890625,9.888052940368652,-0.14604631066322327,0.10055647045373917
1747275442169069800,1.31806982421875,9.928754806518555,-0.15801730751991272,0.09816227108240128
1747275442185064200,1.334064208984375,9.892841339111328,-0.12689268589019775,0.1149216815829277
1747275442201134800,1.350134765625,9.907206535339355,-0.13407529890537262,0.1149216815829277
1747275442217213200,1.366213134765625,9.911994934082031,-0.15083470940589905,0.09576806426048279
1747275442233235200,1.382235107421875,9.914389610290527,-0.12689268589019775,0.08140286058187485
1747275442249286700,1.39828662109375,9.914389610290527,-0.1388636976480484,0.08619125932455063
1747275442265313500,1.4143134765625,9.895236015319824,-0.15801730751991272,0.090979665517807
1747275442281379600,1.430379638671875,9.880870819091797,-0.14365209639072418,0.0933738648891449
1747275442297418500,1.44641845703125,9.888052940368652,-0.15083470940589905,0.090979665517807
1747275442313436200,1.462436279296875,9.856928825378418,-0.17238251864910126,0.10055647045373917
1747275442329441300,1.478441162109375,9.830592155456543,-0.16519992053508759,0.12689268589019775
1747275442345435000,1.494434814453125,9.892841339111328,-0.16998831927776337,0.13407529890537262
1747275442361456000,1.5104560546875,9.90241813659668,-0.14844051003456116,0.1412578970193863
1747275442377493000,1.526492919921875,9.907206535339355,-0.13407529890537262,0.14365209639072418
1747275442393519600,1.54251953125,9.907206535339355,-0.12210428714752197,0.13168109953403473
1747275442409583600,1.55858349609375,9.907206535339355,-0.1388636976480484,0.12928688526153564
1747275442425607000,1.57460693359375,9.885659217834473,-0.1388636976480484,0.10773907601833344
1747275442441678300,1.59067822265625,9.880870819091797,-0.17477671802043915,0.09576806426048279
1747275442457719600,1.606719482421875,9.890447616577148,-0.1867477297782898,0.0933738648891449
1747275442473744400,1.622744384765625,9.890447616577148,-0.1388636976480484,0.09576806426048279
1747275442489794800,1.638794921875,9.916783332824707,-0.14604631066322327,0.07661445438861847
1747275442505799400,1.65479931640625,9.909601211547852,-0.15083470940589905,0.11013327538967133
1747275442521872000,1.670871826171875,9.885659217834473,-0.15083470940589905,0.09816227108240128
1747275442537915400,1.686915283203125,9.871294021606445,-0.1628057211637497,0.12210428714752197
1747275442553938400,1.7029384765625,9.904812812805176,-0.16759411990642548,0.1388636976480484
1747275442569986600,1.718986572265625,9.8784761428833,-0.15801730751991272,0.11252748221158981
1747275442586019600,1.73501953125,9.911994934082031,-0.14365209639072418,0.12928688526153564
1747275442602052000,1.751052001953125,9.938331604003906,-0.1412578970193863,0.13168109953403473
1747275442618095000,1.76709521484375,9.909601211547852,-0.1149216815829277,0.10773907601833344
1747275442634119200,1.783119140625,9.9000244140625,-0.1604115068912506,0.0933738648891449
1747275442650189600,1.799189453125,9.885659217834473,-0.17477671802043915,0.11013327538967133
1747275442666184700,1.815184814453125,9.871294021606445,-0.17477671802043915,0.09576806426048279
1747275442682251500,1.83125146484375,9.871294021606445,-0.15083470940589905,0.10055647045373917
1747275442698289000,1.847288818359375,9.895236015319824,-0.15562310814857483,0.0933738648891449
1747275442714311200,1.863311279296875,9.9000244140625,-0.15083470940589905,0.12449848651885986
1747275442730364700,1.87936474609375,9.897629737854004,-0.12449848651885986,0.11013327538967133
1747275442746453500,1.89545361328125,9.883264541625977,-0.1412578970193863,0.1173158809542656
1747275442762523000,1.91152294921875,9.871294021606445,-0.15801730751991272,0.10534487664699554
1747275442778567400,1.9275673828125,9.888052940368652,-0.16998831927776337,0.1149216815829277
1747275442794592000,1.943592041015625,9.890447616577148,-0.14604631066322327,0.10295066982507706
1747275442810601700,1.959601806640625,9.883264541625977,-0.12928688526153564,0.09576806426048279
1747275442826597600,1.97559765625,9.909601211547852,-0.1412578970193863,0.08858546614646912
1747275442842631200,1.991631103515625,9.90241813659668,-0.1412578970193863,0.09576806426048279
1747275442858672600,2.007672607421875,9.885659217834473,-0.15083470940589905,0.11252748221158981
1747275442874697700,2.02369775390625,9.895236015319824,-0.1628057211637497,0.11252748221158981
1747275442890746400,2.039746337890625,9.885659217834473,-0.15801730751991272,0.090979665517807
1747275442906734300,2.055734375,9.883264541625977,-0.15083470940589905,0.11252748221158981
1747275442922804700,2.0718046875,9.892841339111328,-0.15562310814857483,0.12210428714752197
1747275442938846700,2.0878466796875,9.907206535339355,-0.1412578970193863,0.10534487664699554
1747275442954869500,2.103869384765625,9.885659217834473,-0.14844051003456116,0.12449848651885986
1747275442970939100,2.119939208984375,9.90241813659668,-0.15801730751991272,0.11252748221158981
1747275442986936000,2.13593603515625,9.871294021606445,-0.1388636976480484,0.09816227108240128
1747275443003009000,2.152009033203125,9.8784761428833,-0.16519992053508759,0.11971008777618408
1747275443019053800,2.1680537109375,9.919178009033203,-0.181959331035614,0.09576806426048279
1747275443035075600,2.18407568359375,9.892841339111328,-0.1604115068912506,0.0933738648891449
1747275443051086000,2.200086181640625,9.885659217834473,-0.12928688526153564,0.1173158809542656
1747275443067079700,2.21607958984375,9.895236015319824,-0.14844051003456116,0.0933738648891449
1747275443083109400,2.232109375,9.876082420349121,-0.14844051003456116,0.10055647045373917
1747275443099151000,2.248151123046875,9.890447616577148,-0.14844051003456116,0.1364694982767105
1747275443115175200,2.264175048828125,9.904812812805176,-0.1628057211637497,0.08858546614646912
1747275443131273200,2.280273193359375,9.885659217834473,-0.1388636976480484,0.11013327538967133
1747275443147270400,2.2962705078125,9.86889934539795,-0.1412578970193863,0.1149216815829277
1747275443163340500,2.312340576171875,9.921571731567383,-0.1388636976480484,0.10773907601833344
1747275443179381500,2.328381591796875,9.90241813659668,-0.15322890877723694,0.10055647045373917
1747275443195407000,2.344406982421875,9.84256362915039,-0.16519992053508759,0.12928688526153564
1747275443211458800,2.360458740234375,9.883264541625977,-0.17956513166427612,0.11252748221158981
1747275443227460600,2.376460693359375,9.890447616577148,-0.15322890877723694,0.11013327538967133
1747275443243535000,2.39253515625,9.86889934539795,-0.15562310814857483,0.11252748221158981
1747275443259582000,2.40858203125,9.93593692779541,-0.1604115068912506,0.11013327538967133
1747275443275607300,2.424607177734375,9.880870819091797,-0.1173158809542656,0.09816227108240128
1747275443291616300,2.4406162109375,9.890447616577148,-0.1412578970193863,0.10773907601833344
1747275443307612000,2.45661181640625,9.895236015319824,-0.14365209639072418,0.10295066982507706
1747275443323646500,2.472646484375,9.864110946655273,-0.15083470940589905,0.13407529890537262
1747275443339693800,2.48869384765625,9.888052940368652,-0.15562310814857483,0.12210428714752197
1747275443355718400,2.504718505859375,9.90241813659668,-0.14604631066322327,0.10295066982507706
1747275443371767300,2.520767333984375,9.888052940368652,-0.1364694982767105,0.10534487664699554
1747275443387759600,2.536759521484375,9.911994934082031,-0.15322890877723694,0.10534487664699554
1747275443403832800,2.552832763671875,9.883264541625977,-0.1628057211637497,0.10534487664699554
1747275443419873500,2.56887353515625,9.871294021606445,-0.1628057211637497,0.11013327538967133
1747275443435895800,2.584895751953125,9.895236015319824,-0.1628057211637497,0.09816227108240128
1747275443451944200,2.600944091796875,9.8784761428833,-0.1604115068912506,0.10773907601833344
1747275443467942000,2.61694189453125,9.885659217834473,-0.1412578970193863,0.12210428714752197
1747275443484015000,2.63301513671875,9.907206535339355,-0.14604631066322327,0.08858546614646912
1747275443500057900,2.649057861328125,9.852140426635742,-0.12928688526153564,0.11013327538967133
1747275443516083200,2.665083251953125,9.892841339111328,-0.16759411990642548,0.12449848651885986
1747275443532093200,2.68109326171875,9.909601211547852,-0.17477671802043915,0.11013327538967133
1747275443548096800,2.6970966796875,9.895236015319824,-0.14604631066322327,0.10534487664699554
1747275443564128000,2.7131279296875,9.871294021606445,-0.1628057211637497,0.1149216815829277
1747275443580168700,2.729168701171875,9.911994934082031,-0.16759411990642548,0.11252748221158981
1747275443596190500,2.7451904296875,9.90241813659668,-0.12210428714752197,0.09816227108240128
1747275443612241000,2.761240966796875,9.895236015319824,-0.1364694982767105,0.09576806426048279
1747275443628236300,2.777236328125,9.861717224121094,-0.16998831927776337,0.09816227108240128
1747275443644312300,2.793312255859375,9.914389610290527,-0.15801730751991272,0.1149216815829277
1747275443660355600,2.80935546875,9.9000244140625,-0.1604115068912506,0.10773907601833344
1747275443676383500,2.825383544921875,9.8784761428833,-0.15322890877723694,0.10773907601833344
1747275443692433700,2.84143359375,9.876082420349121,-0.1604115068912506,0.12928688526153564
1747275443708469000,2.857468994140625,9.871294021606445,-0.15322890877723694,0.10295066982507706
1747275443724543000,2.87354296875,9.926360130310059,-0.1412578970193863,0.11971008777618408
1747275443740588300,2.88958837890625,9.885659217834473,-0.15322890877723694,0.11252748221158981
1747275443756615000,2.905614990234375,9.84256362915039,-0.16759411990642548,0.10773907601833344
1747275443772626200,2.921626220703125,9.888052940368652,-0.16519992053508759,0.09816227108240128
1747275443788624000,2.937623779296875,9.90241813659668,-0.14365209639072418,0.0933738648891449
1747275443804655600,2.953655517578125,9.90241813659668,-0.1412578970193863,0.08858546614646912
1747275443820698400,2.969698486328125,9.904812812805176,-0.1604115068912506,0.10773907601833344
1747275443836723200,2.98572314453125,9.897629737854004,-0.13168109953403473,0.10055647045373917
1747275443852773000,3.001773193359375,9.892841339111328,-0.12689268589019775,0.10773907601833344
1747275443868783400,3.017783447265625,9.880870819091797,-0.16519992053508759,0.09816227108240128
1747275443884860400,3.0338603515625,9.84256362915039,-0.16519992053508759,0.11252748221158981
1747275443900902400,3.04990234375,9.9000244140625,-0.1388636976480484,0.11971008777618408
1747275443916929800,3.0659296875,9.926360130310059,-0.12449848651885986,0.10295066982507706
1747275443932982000,3.08198193359375,9.907206535339355,-0.14365209639072418,0.10295066982507706
1747275443948980000,3.09797998046875,9.907206535339355,-0.14365209639072418,0.12928688526153564
1747275443965053000,3.114052978515625,9.904812812805176,-0.1604115068912506,0.11252748221158981
1747275443981094000,3.130093994140625,9.888052940368652,-0.17717093229293823,0.12210428714752197
1747275443997118700,3.14611865234375,9.876082420349121,-0.15322890877723694,0.11252748221158981
1747275444013138700,3.162138671875,9.86650562286377,-0.18914192914962769,0.09816227108240128
1747275444029152300,3.17815234375,9.9000244140625,-0.13407529890537262,0.09576806426048279
1747275444045184300,3.194184326171875,9.919178009033203,-0.13168109953403473,0.090979665517807
1747275444061227800,3.210227783203125,9.911994934082031,-0.15801730751991272,0.1149216815829277
1747275444077252400,3.22625244140625,9.871294021606445,-0.17477671802043915,0.1173158809542656
1747275444093340400,3.24234033203125,9.880870819091797,-0.16759411990642548,0.12928688526153564
1747275444109335000,3.2583349609375,9.892841339111328,-0.17956513166427612,0.0933738648891449
1747275444125407500,3.274407470703125,9.9000244140625,-0.14604631066322327,0.11252748221158981
1747275444141449500,3.290449462890625,9.90241813659668,-0.1364694982767105,0.11971008777618408
1747275444157474600,3.306474609375,9.90241813659668,-0.1388636976480484,0.09576806426048279
1747275444173528300,3.3225283203125,9.904812812805176,-0.13407529890537262,0.10534487664699554
1747275444189545000,3.338544921875,9.86889934539795,-0.17477671802043915,0.1149216815829277
1747275444205616400,3.354616455078125,9.852140426635742,-0.16519992053508759,0.08858546614646912
1747275444221656800,3.37065673828125,9.895236015319824,-0.181959331035614,0.12689268589019775
1747275444237678800,3.386678955078125,9.909601211547852,-0.15562310814857483,0.10295066982507706
1747275444253684700,3.402684814453125,9.909601211547852,-0.12689268589019775,0.09816227108240128
1747275444269677000,3.418677001953125,9.923966407775879,-0.11252748221158981,0.1173158809542656
1747275444285708500,3.43470849609375,9.885659217834473,-0.1604115068912506,0.10773907601833344
1747275444301751600,3.45075146484375,9.895236015319824,-0.1412578970193863,0.12210428714752197
1747275444317794600,3.466794677734375,9.861717224121094,-0.181959331035614,0.13407529890537262
1747275444333839600,3.482839599609375,9.864110946655273,-0.17717093229293823,0.090979665517807
1747275444349862400,3.4988623046875,9.90241813659668,-0.14365209639072418,0.11971008777618408
1747275444365934000,3.51493408203125,9.931148529052734,-0.14604631066322327,0.11013327538967133
1747275444382005000,3.5310048828125,9.916783332824707,-0.11252748221158981,0.090979665517807
1747275444398028800,3.54702880859375,9.890447616577148,-0.13407529890537262,0.12928688526153564
1747275444414079500,3.56307958984375,9.895236015319824,-0.16759411990642548,0.10534487664699554
1747275444430076700,3.57907666015625,9.849745750427246,-0.17717093229293823,0.11013327538967133
1747275444446147800,3.59514794921875,9.892841339111328,-0.16519992053508759,0.0933738648891449
1747275444462188500,3.6111884765625,9.93593692779541,-0.14844051003456116,0.0933738648891449
1747275444478215000,3.62721484375,9.880870819091797,-0.10295066982507706,0.0933738648891449
1747275444494224400,3.643224365234375,9.945513725280762,-0.09816227108240128,0.09576806426048279
1747275444510244000,3.659244140625,9.921571731567383,-0.1604115068912506,0.10534487664699554
1747275444526275000,3.675275146484375,9.825803756713867,-0.14365209639072418,0.11252748221158981
1747275444542316300,3.69131640625,9.859322547912598,-0.19632454216480255,0.11971008777618408
1747275444558340600,3.707340576171875,9.885659217834473,-0.1843535304069519,0.13407529890537262
1747275444574391000,3.72339111328125,9.890447616577148,-0.1173158809542656,0.11252748221158981
1747275444590387500,3.739387451171875,9.93354320526123,-0.10773907601833344,0.12689268589019775
1747275444606460000,3.7554599609375,9.943120002746582,-0.1412578970193863,0.10295066982507706
1747275444622500600,3.77150048828125,9.859322547912598,-0.1412578970193863,0.0933738648891449
1747275444638524000,3.78752392578125,9.86889934539795,-0.17477671802043915,0.10055647045373917
1747275444654568400,3.803568359375,9.890447616577148,-0.19632454216480255,0.09576806426048279
1747275444670603000,3.81960302734375,9.835380554199219,-0.1628057211637497,0.1149216815829277
1747275444686673200,3.835673095703125,9.914389610290527,-0.12689268589019775,0.09816227108240128
1747275444702712000,3.851712158203125,9.964667320251465,-0.1412578970193863,0.11252748221158981
1747275444718732300,3.867732177734375,9.897629737854004,-0.1364694982767105,0.10773907601833344
1747275444734780000,3.88377978515625,9.86889934539795,-0.15562310814857483,0.1173158809542656
1747275444750774500,3.8997744140625,9.8784761428833,-0.181959331035614,0.10055647045373917
1747275444766804200,3.91580419921875,9.854534149169922,-0.1628057211637497,0.09816227108240128
1747275444782842600,3.931842529296875,9.895236015319824,-0.1628057211637497,0.08619125932455063
1747275444798864600,3.94786474609375,9.943120002746582,-0.12449848651885986,0.09816227108240128
1747275444814873000,3.963873046875,9.911994934082031,-0.08858546614646912,0.09576806426048279
1747275444830909200,3.9799091796875,9.911994934082031,-0.13407529890537262,0.10295066982507706
1747275444846984700,3.995984619140625,9.911994934082031,-0.1628057211637497,0.09816227108240128
1747275444863060000,4.01206005859375,9.84256362915039,-0.17477671802043915,0.10773907601833344
1747275444879086600,4.028086669921875,9.86650562286377,-0.181959331035614,0.11252748221158981
1747275444895140900,4.044140869140625,9.921571731567383,-0.16759411990642548,0.11013327538967133
1747275444911135200,4.06013525390625,9.904812812805176,-0.12449848651885986,0.1149216815829277
1747275444927204600,4.07620458984375,9.904812812805176,-0.11013327538967133,0.11971008777618408
1747275444943247000,4.0922470703125,9.926360130310059,-0.15322890877723694,0.10055647045373917
1747275444959273000,4.10827294921875,9.8784761428833,-0.15562310814857483,0.11252748221158981
1747275444975281200,4.12428125,9.864110946655273,-0.17238251864910126,0.12449848651885986
1747275444991319300,4.1403193359375,9.888052940368652,-0.19871874153614044,0.10773907601833344
1747275445007355600,4.156355712890625,9.876082420349121,-0.1364694982767105,0.11971008777618408
1747275445023419000,4.1724189453125,9.923966407775879,-0.12689268589019775,0.11013327538967133
1747275445039436300,4.188436279296875,9.940725326538086,-0.1388636976480484,0.10534487664699554
1747275445055535000,4.20453515625,9.885659217834473,-0.1364694982767105,0.11252748221158981
1747275445071531300,4.22053125,9.880870819091797,-0.15322890877723694,0.11971008777618408
1747275445087603500,4.236603515625,9.876082420349121,-0.19871874153614044,0.1173158809542656
1747275445103644700,4.252644775390625,9.876082420349121,-0.1628057211637497,0.1173158809542656
1747275445119667700,4.268667724609375,9.890447616577148,-0.15562310814857483,0.1149216815829277
1747275445135715300,4.28471533203125,9.93354320526123,-0.1388636976480484,0.11252748221158981
1747275445151774200,4.300774169921875,9.916783332824707,-0.12449848651885986,0.10534487664699554
1747275445167843000,4.316843017578125,9.923966407775879,-0.14365209639072418,0.12210428714752197
1747275445183883800,4.3328837890625,9.888052940368652,-0.18914192914962769,0.0933738648891449
1747275445199908000,4.348908203125,9.86650562286377,-0.17477671802043915,0.08619125932455063
1747275445215919600,4.364919677734375,9.86889934539795,-0.1628057211637497,0.090979665517807
1747275445231918600,4.380918701171875,9.90241813659668,-0.15322890877723694,0.1173158809542656
1747275445247951000,4.396951171875,9.904812812805176,-0.15322890877723694,0.11252748221158981
1747275445263996400,4.412996337890625,9.916783332824707,-0.14365209639072418,0.1149216815829277
1747275445280024600,4.429024658203125,9.909601211547852,-0.14604631066322327,0.10534487664699554
1747275445296078300,4.445078369140625,9.8784761428833,-0.1628057211637497,0.1388636976480484
1747275445312075300,4.4610751953125,9.873687744140625,-0.16998831927776337,0.1149216815829277
1747275445328147700,4.477147705078125,9.904812812805176,-0.1628057211637497,0.11252748221158981
1747275445344207000,4.49320703125,9.919178009033203,-0.1412578970193863,0.12449848651885986
1747275445360233700,4.509233642578125,9.926360130310059,-0.1173158809542656,0.11252748221158981
1747275445376286200,4.5252861328125,9.907206535339355,-0.13168109953403473,0.1173158809542656
1747275445392279800,4.54127978515625,9.90241813659668,-0.14365209639072418,0.0933738648891449
1747275445408351500,4.5573515625,9.890447616577148,-0.17238251864910126,0.10295066982507706
1747275445424394200,4.573394287109375,9.876082420349121,-0.181959331035614,0.1149216815829277
1747275445440416800,4.589416748046875,9.895236015319824,-0.1604115068912506,0.10055647045373917
1747275445456420400,4.60542041015625,9.9000244140625,-0.13407529890537262,0.11013327538967133
1747275445472417300,4.621417236328125,9.9000244140625,-0.1412578970193863,0.10773907601833344
1747275445488447700,4.63744775390625,9.904812812805176,-0.11971008777618408,0.11013327538967133
1747275445504489500,4.653489501953125,9.907206535339355,-0.15083470940589905,0.10773907601833344
1747275445520512000,4.669511962890625,9.888052940368652,-0.16759411990642548,0.10534487664699554
1747275445536558600,4.68555859375,9.871294021606445,-0.17717093229293823,0.12210428714752197
1747275445552555300,4.70155517578125,9.909601211547852,-0.1628057211637497,0.11252748221158981
1747275445568627200,4.717627197265625,9.914389610290527,-0.1412578970193863,0.10295066982507706
1747275445584665600,4.73366552734375,9.919178009033203,-0.14844051003456116,0.10055647045373917
1747275445600689200,4.749689208984375,9.90241813659668,-0.14604631066322327,0.11252748221158981
1747275445616743200,4.7657431640625,9.895236015319824,-0.15801730751991272,0.10055647045373917
1747275445632758800,4.7817587890625,9.895236015319824,-0.1628057211637497,0.10773907601833344
1747275445648853000,4.79785302734375,9.880870819091797,-0.17717093229293823,0.11013327538967133
1747275445664897500,4.8138974609375,9.883264541625977,-0.15322890877723694,0.10773907601833344
1747275445680927500,4.829927490234375,9.904812812805176,-0.1412578970193863,0.11971008777618408
1747275445696943900,4.84594384765625,9.923966407775879,-0.12928688526153564,0.11013327538967133
1747275445712945700,4.861945556640625,9.895236015319824,-0.1364694982767105,0.10534487664699554
1747275445728986600,4.877986572265625,9.888052940368652,-0.15322890877723694,0.11971008777618408
1747275445745031400,4.894031494140625,9.895236015319824,-0.18914192914962769,0.10534487664699554
1747275445761058600,4.91005859375,9.876082420349121,-0.1628057211637497,0.0933738648891449
1747275445777114000,4.926114013671875,9.895236015319824,-0.14844051003456116,0.10295066982507706
1747275445793121000,4.94212109375,9.916783332824707,-0.14844051003456116,0.10055647045373917
1747275445809195500,4.958195556640625,9.914389610290527,-0.14365209639072418,0.1173158809542656
1747275445825245000,4.974244873046875,9.914389610290527,-0.14604631066322327,0.12210428714752197
1747275445841269200,4.990269287109375,9.888052940368652,-0.16998831927776337,0.11252748221158981
1747275445857315600,5.006315673828125,9.8784761428833,-0.17956513166427612,0.11252748221158981
1747275445873308700,5.02230859375,9.888052940368652,-0.16519992053508759,0.11252748221158981
1747275445889370000,5.0383701171875,9.90241813659668,-0.15801730751991272,0.10773907601833344
1747275445905405200,5.0544052734375,9.914389610290527,-0.1412578970193863,0.10773907601833344
1747275445921435100,5.07043505859375,9.90241813659668,-0.1628057211637497,0.1173158809542656
1747275445937435000,5.086434814453125,9.921571731567383,-0.14365209639072418,0.10534487664699554
1747275445953434400,5.102434326171875,9.895236015319824,-0.15801730751991272,0.1149216815829277
1747275445969466400,5.11846630859375,9.883264541625977,-0.14604631066322327,0.10534487664699554
1747275445985508900,5.1345087890625,9.8784761428833,-0.16519992053508759,0.1173158809542656
1747275446001532400,5.150532470703125,9.9000244140625,-0.14604631066322327,0.11252748221158981
1747275446017624000,5.1666240234375,9.909601211547852,-0.13407529890537262,0.10055647045373917
1747275446033621800,5.182621826171875,9.911994934082031,-0.15562310814857483,0.09576806426048279
1747275446049696500,5.198696533203125,9.897629737854004,-0.1412578970193863,0.11013327538967133
1747275446065739500,5.214739501953125,9.897629737854004,-0.15801730751991272,0.10295066982507706
1747275446081766000,5.230765869140625,9.890447616577148,-0.17238251864910126,0.11013327538967133
1747275446097820200,5.246820068359375,9.888052940368652,-0.15322890877723694,0.10534487664699554
1747275446113854500,5.2628544921875,9.919178009033203,-0.15083470940589905,0.10055647045373917
1747275446129929700,5.2789296875,9.916783332824707,-0.1364694982767105,0.10055647045373917
1747275446145975000,5.29497509765625,9.9000244140625,-0.1412578970193863,0.1173158809542656
1747275446162001700,5.311001708984375,9.888052940368652,-0.1604115068912506,0.08619125932455063
1747275446178014500,5.327014404296875,9.892841339111328,-0.1412578970193863,0.12689268589019775
1747275446194016500,5.3430166015625,9.871294021606445,-0.17717093229293823,0.10773907601833344
1747275446210046500,5.35904638671875,9.90241813659668,-0.15322890877723694,0.10534487664699554
1747275446226089000,5.3750888671875,9.904812812805176,-0.12928688526153564,0.1173158809542656
1747275446242114600,5.391114501953125,9.916783332824707,-0.12689268589019775,0.10055647045373917
1747275446258165200,5.407165283203125,9.895236015319824,-0.14365209639072418,0.0933738648891449
1747275446274175000,5.423175048828125,9.888052940368652,-0.1604115068912506,0.11252748221158981
1747275446290249200,5.439249267578125,9.876082420349121,-0.16998831927776337,0.1149216815829277
1747275446306320100,5.455320068359375,9.892841339111328,-0.16759411990642548,0.1149216815829277
1747275446322350000,5.47135009765625,9.897629737854004,-0.1628057211637497,0.09576806426048279
1747275446338405000,5.487405029296875,9.895236015319824,-0.14844051003456116,0.10295066982507706
1747275446354403300,5.5034033203125,9.907206535339355,-0.14604631066322327,0.10773907601833344
1747275446370481200,5.519481201171875,9.909601211547852,-0.1604115068912506,0.1149216815829277
1747275446386530300,5.5355302734375,9.895236015319824,-0.16519992053508759,0.10295066982507706
1747275446402559200,5.551559326171875,9.892841339111328,-0.16998831927776337,0.12449848651885986
1747275446418574000,5.567573974609375,9.880870819091797,-0.17956513166427612,0.13168109953403473
1747275446434597600,5.58359765625,9.90241813659668,-0.1412578970193863,0.0933738648891449
1747275446450633700,5.5996337890625,9.911994934082031,-0.14604631066322327,0.11252748221158981
1747275446466680000,5.61568017578125,9.892841339111328,-0.15322890877723694,0.11252748221158981
1747275446482705700,5.63170556640625,9.909601211547852,-0.14365209639072418,0.10534487664699554
1747275446498718000,5.647718017578125,9.892841339111328,-0.15322890877723694,0.10534487664699554
1747275446514715100,5.663715087890625,9.86889934539795,-0.17717093229293823,0.10534487664699554
1747275446530786800,5.679786865234375,9.873687744140625,-0.17238251864910126,0.11013327538967133
1747275446546842000,5.695842041015625,9.907206535339355,-0.15801730751991272,0.0933738648891449
1747275446562864000,5.711864013671875,9.907206535339355,-0.15562310814857483,0.10773907601833344
1747275446578919400,5.72791943359375,9.9000244140625,-0.14844051003456116,0.09816227108240128
1747275446594948600,5.743948486328125,9.909601211547852,-0.15083470940589905,0.12928688526153564
1747275446611019800,5.760019775390625,9.888052940368652,-0.14844051003456116,0.10534487664699554
1747275446627068000,5.77606787109375,9.883264541625977,-0.16759411990642548,0.0933738648891449
1747275446643096600,5.7920966796875,9.9000244140625,-0.1628057211637497,0.11013327538967133
1747275446659108400,5.8081083984375,9.897629737854004,-0.1604115068912506,0.10055647045373917
1747275446675107000,5.824107177734375,9.916783332824707,-0.16519992053508759,0.08858546614646912
1747275446691142400,5.840142333984375,9.919178009033203,-0.15562310814857483,0.11252748221158981
1747275446707188000,5.85618798828125,9.90241813659668,-0.15801730751991272,0.09576806426048279
1747275446723214300,5.87221435546875,9.880870819091797,-0.1628057211637497,0.11013327538967133
1747275446739265800,5.888265869140625,9.885659217834473,-0.15322890877723694,0.09816227108240128
1747275446755281400,5.904281494140625,9.888052940368652,-0.16519992053508759,0.11252748221158981
1747275446771355100,5.920355224609375,9.873687744140625,-0.14844051003456116,0.10295066982507706
1747275446787394000,5.93639404296875,9.919178009033203,-0.15083470940589905,0.10773907601833344
1747275446803413000,5.9524130859375,9.890447616577148,-0.15562310814857483,0.10295066982507706
1747275446819460000,5.968460205078125,9.880870819091797,-0.13168109953403473,0.10773907601833344
1747275446835456000,5.9844560546875,9.907206535339355,-0.1628057211637497,0.11013327538967133
1747275446851527000,6.00052685546875,9.919178009033203,-0.16998831927776337,0.0933738648891449
1747275446867568000,6.016568115234375,9.8784761428833,-0.15562310814857483,0.10055647045373917
1747275446883595800,6.032595703125,9.914389610290527,-0.15083470940589905,0.10295066982507706
1747275446899609000,6.048609130859375,9.895236015319824,-0.14844051003456116,0.1149216815829277
1747275446915643100,6.06464306640625,9.890447616577148,-0.14604631066322327,0.12449848651885986
1747275446931679500,6.080679443359375,9.916783332824707,-0.15562310814857483,0.10534487664699554
1747275446947730400,6.09673046875,9.86889934539795,-0.15083470940589905,0.12210428714752197
1747275446963755500,6.112755615234375,9.876082420349121,-0.14604631066322327,0.10055647045373917
1747275446979820500,6.128820556640625,9.919178009033203,-0.1628057211637497,0.11252748221158981
1747275446995818800,6.14481884765625,9.897629737854004,-0.13407529890537262,0.1149216815829277
1747275447011891000,6.160890869140625,9.871294021606445,-0.12689268589019775,0.09576806426048279
1747275447027970600,6.176970458984375,9.904812812805176,-0.15562310814857483,0.1149216815829277
1747275447043996400,6.192996337890625,9.897629737854004,-0.1412578970193863,0.11013327538967133
1747275447060046800,6.209046875,9.832986831665039,-0.17477671802043915,0.10773907601833344
1747275447076079000,6.2250791015625,10.022128105163574,-0.18914192914962769,0.12449848651885986
1747275447092154400,6.241154296875,9.943120002746582,-0.1388636976480484,0.08140286058187485
1747275447108201000,6.257200927734375,9.921571731567383,-0.13168109953403473,0.090979665517807
1747275447124224300,6.273224365234375,9.9000244140625,-0.15562310814857483,0.1149216815829277
1747275447140232000,6.28923193359375,9.873687744140625,-0.14365209639072418,0.12689268589019775
1747275447156231700,6.305231689453125,9.883264541625977,-0.14604631066322327,0.11252748221158981
1747275447172266200,6.321266357421875,9.880870819091797,-0.17956513166427612,0.10534487664699554
1747275447188312600,6.3373125,9.880870819091797,-0.14844051003456116,0.11971008777618408
1747275447204337200,6.353337158203125,9.892841339111328,-0.14365209639072418,0.10773907601833344
1747275447220406000,6.369406005859375,9.93354320526123,-0.14604631066322327,0.09576806426048279
1747275447236440800,6.38544091796875,9.916783332824707,-0.13407529890537262,0.1149216815829277
1747275447252517000,6.40151708984375,9.892841339111328,-0.1388636976480484,0.10534487664699554
1747275447268555300,6.41755517578125,9.871294021606445,-0.15562310814857483,0.1173158809542656
1747275447284578800,6.433578857421875,9.885659217834473,-0.15322890877723694,0.10295066982507706
1747275447300630800,6.449630859375,9.873687744140625,-0.16519992053508759,0.12449848651885986
1747275447316639200,6.46563916015625,9.897629737854004,-0.15801730751991272,0.10773907601833344
1747275447332714800,6.48171484375,9.923966407775879,-0.15801730751991272,0.09576806426048279
1747275447348759800,6.497759765625,9.926360130310059,-0.12928688526153564,0.09576806426048279
1747275447364784400,6.513784423828125,9.921571731567383,-0.12928688526153564,0.1149216815829277
1747275447380794400,6.52979443359375,9.904812812805176,-0.16759411990642548,0.13168109953403473
1747275447396830200,6.545830322265625,9.86889934539795,-0.16519992053508759,0.10534487664699554
1747275447412862500,6.561862548828125,9.907206535339355,-0.17477671802043915,0.10773907601833344
1747275447428905200,6.5779052734375,9.895236015319824,-0.15083470940589905,0.10055647045373917
1747275447444931300,6.593931396484375,9.888052940368652,-0.14844051003456116,0.10295066982507706
1747275447460983600,6.609983642578125,9.928754806518555,-0.15322890877723694,0.08140286058187485
1747275447476979200,6.625979248046875,9.914389610290527,-0.11252748221158981,0.09576806426048279
1747275447493049000,6.642049072265625,9.8784761428833,-0.14604631066322327,0.10534487664699554
1747275447509111300,6.658111328125,9.895236015319824,-0.17717093229293823,0.11252748221158981
1747275447525138200,6.67413818359375,9.873687744140625,-0.1628057211637497,0.11013327538967133
1747275447541192200,6.690192138671875,9.8784761428833,-0.1628057211637497,0.090979665517807
1747275447557237500,6.706237548828125,9.911994934082031,-0.17477671802043915,0.10055647045373917
1747275447573307600,6.7223076171875,9.907206535339355,-0.15562310814857483,0.10295066982507706
1747275447589348900,6.738348876953125,9.90241813659668,-0.1412578970193863,0.11013327538967133
1747275447605370400,6.754370361328125,9.909601211547852,-0.15801730751991272,0.10295066982507706
1747275447621380000,6.770380126953125,9.871294021606445,-0.16759411990642548,0.1149216815829277
1747275447637374700,6.786374755859375,9.885659217834473,-0.15562310814857483,0.11252748221158981
1747275447653406700,6.80240673828125,9.909601211547852,-0.15562310814857483,0.09576806426048279
1747275447669447700,6.81844775390625,9.904812812805176,-0.15083470940589905,0.0933738648891449
1747275447685472500,6.834472412109375,9.890447616577148,-0.15322890877723694,0.10055647045373917
1747275447701521000,6.85052099609375,9.90241813659668,-0.15562310814857483,0.11252748221158981
1747275447717511400,6.866511474609375,9.904812812805176,-0.15083470940589905,0.11252748221158981
1747275447733586000,6.8825859375,9.885659217834473,-0.15562310814857483,0.11013327538967133
1747275447749626600,6.898626708984375,9.892841339111328,-0.17477671802043915,0.09576806426048279
1747275447765651700,6.914651611328125,9.9000244140625,-0.1628057211637497,0.1173158809542656
1747275447781705200,6.930705322265625,9.904812812805176,-0.1364694982767105,0.10534487664699554
1747275447797702100,6.9467021484375,9.909601211547852,-0.13407529890537262,0.10295066982507706
1747275447813771800,6.962771728515625,9.888052940368652,-0.15801730751991272,0.12449848651885986
1747275447829816800,6.97881689453125,9.883264541625977,-0.1604115068912506,0.11013327538967133
1747275447845842700,6.9948427734375,9.885659217834473,-0.1604115068912506,0.1173158809542656
1747275447861854200,7.010854248046875,9.907206535339355,-0.1604115068912506,0.1173158809542656
1747275447877849900,7.026849853515625,9.895236015319824,-0.1412578970193863,0.12210428714752197
1747275447893881000,7.042881103515625,9.9000244140625,-0.1388636976480484,0.12210428714752197
1747275447909923800,7.058923828125,9.890447616577148,-0.16519992053508759,0.09576806426048279
1747275447925948000,7.074947998046875,9.9000244140625,-0.15083470940589905,0.10055647045373917
1747275447941998800,7.090998779296875,9.90241813659668,-0.1628057211637497,0.11013327538967133
1747275447957999000,7.1069990234375,9.892841339111328,-0.14604631066322327,0.09576806426048279
1747275447974074600,7.12307470703125,9.909601211547852,-0.1628057211637497,0.09816227108240128
1747275447990117400,7.139117431640625,9.914389610290527,-0.1388636976480484,0.09576806426048279
1747275448006142500,7.155142578125,9.883264541625977,-0.1388636976480484,0.10055647045373917
1747275448022204000,7.171203857421875,9.895236015319824,-0.1843535304069519,0.11013327538967133
1747275448038204000,7.187203857421875,9.904812812805176,-0.181959331035614,0.10773907601833344
1747275448054274000,7.203274169921875,9.883264541625977,-0.14604631066322327,0.1149216815829277
1747275448070325200,7.2193251953125,9.897629737854004,-0.14365209639072418,0.11252748221158981
1747275448086352600,7.2353525390625,9.799467086791992,-0.14365209639072418,0.11971008777618408
1747275448102357000,7.25135693359375,9.988609313964844,-0.15801730751991272,0.11971008777618408
1747275448118356700,7.267356689453125,9.93593692779541,-0.1388636976480484,0.09576806426048279
1747275448134383600,7.283383544921875,9.911994934082031,-0.15322890877723694,0.1173158809542656
1747275448150419700,7.299419677734375,9.928754806518555,-0.15801730751991272,0.10055647045373917
1747275448166444500,7.315444580078125,9.892841339111328,-0.1149216815829277,0.11971008777618408
1747275448182539800,7.331539794921875,9.959878921508789,-0.23942017555236816,0.3758896589279175
1747275448198539500,7.34753955078125,9.888052940368652,0.26096799969673157,0.5674257874488831
1747275448214613200,7.36361328125,9.923966407775879,0.06224924325942993,-1.0414776802062988
1747275448230653000,7.37965283203125,9.9000244140625,0.1173158809542656,-0.5123591423034668
1747275448246675200,7.39567529296875,9.950302124023438,0.38307225704193115,0.4141969084739685
1747275448262725600,7.4117255859375,9.952696800231934,-0.15083470940589905,0.5003881454467773
1747275448278770000,7.42777001953125,9.93593692779541,-0.5650315880775452,0.181959331035614
1747275448294841300,7.44384130859375,10.050858497619629,-0.7445967197418213,0.028730420395731926
1747275448310883600,7.459883544921875,10.06043529510498,-0.043095629662275314,0.31842881441116333
1747275448326929700,7.4759296875,9.62947940826416,0.6009446382522583,0.706289529800415
1747275448342938000,7.491938232421875,9.945513725280762,-0.6560112833976746,0.10534487664699554
1747275448358942500,7.5079423828125,10.055646896362305,-0.8619126081466675,-0.751779317855835
1747275448374976500,7.5239765625,9.852140426635742,-0.0454898327589035,0.07182604819536209
1747275448391021300,7.540021240234375,9.945513725280762,-0.1843535304069519,0.10055647045373917
1747275448407046700,7.556046630859375,9.959878921508789,-0.2346317619085312,0.10773907601833344
1747275448423095600,7.572095458984375,9.734824180603027,-0.912190854549408,1.161187767982483
1747275448439090000,7.58808984375,10.273519515991211,-1.4963760375976562,2.0015525817871094
1747275448455155000,7.604155029296875,9.801861763000488,-0.08379705995321274,1.0773907899856567
1747275448471228000,7.620227783203125,10.223240852355957,0.8619126081466675,-1.235408067703247
1747275448487252700,7.636252685546875,9.605537414550781,0.2537853717803955,-1.8531121015548706
1747275448503297800,7.6522978515625,10.266336441040039,-0.17717093229293823,0.023942016065120697
1747275448519304700,7.6683046875,8.757989883422852,-0.569819986820221,-0.12689268589019775
1747275448535369200,7.684369140625,9.892841339111328,-0.7565677165985107,-0.2346317619085312
1747275448551392300,7.700392333984375,6.9695210456848145,-0.395043283700943,-0.22026655077934265
1747275448567418600,7.716418701171875,10.520122528076172,-0.507570743560791,0.033518824726343155
1747275448583412200,7.732412109375,10.091560363769531,-1.6184803247451782,0.3878606855869293
1747275448599407900,7.748407958984375,9.255983352661133,-1.3239935636520386,-1.0199298858642578
1747275448615427800,7.764427734375,9.871294021606445,-0.5506663918495178,-2.8395233154296875
1747275448631456300,7.780456298828125,9.854534149169922,0.2346317619085312,-1.2665326595306396
1747275448647479800,7.796479736328125,10.283096313476562,0.21547815203666687,0.27054479718208313
1747275448663556600,7.812556640625,9.99339771270752,-0.22266076505184174,-0.3064578175544739
1747275448679559200,7.82855908203125,10.864887237548828,0.05746084079146385,0.24181437492370605
1747275448695622700,7.84462255859375,10.02691650390625,-1.50355863571167,1.290474772453308
1747275448711655400,7.860655517578125,9.727641105651855,-1.2761094570159912,1.139639973640442
1747275448727675600,7.876675537109375,9.703699111938477,-1.0055646896362305,-0.9816226959228516
1747275448743717600,7.892717529296875,9.8784761428833,-0.7589619159698486,-1.6304513216018677
1747275448759714000,7.908714111328125,9.84495735168457,-0.5315127968788147,-1.3527239561080933
1747275448775773400,7.9247734375,9.801861763000488,-0.524330198764801,-0.9002198576927185
1747275448791809000,7.94080908203125,9.493009567260742,-1.2210428714752197,-2.96162748336792
1747275448807834600,7.956834716796875,10.160991668701172,-2.0470423698425293,-2.80361008644104
1747275448823834000,7.972834228515625,10.955866813659668,-1.9393033981323242,-2.319981336593628
1747275448839833900,7.988833740234375,10.247182846069336,-1.216254472732544,-1.9321208000183105
1747275448855862300,8.0048623046875,9.251194953918457,-0.9983820915222168,-1.9297266006469727
1747275448871895600,8.0208955078125,9.473855972290039,-0.569819986820221,-0.13407529890537262
1747275448887919600,8.036919677734375,9.184157371520996,-0.1628057211637497,-0.646434485912323
1747275448903964400,8.05296435546875,8.655038833618164,0.09816227108240128,-2.6647465229034424
1747275448919964000,8.0689638671875,8.765172004699707,0.043095629662275314,-3.4572272300720215
1747275448936026600,8.085026611328125,10.251971244812012,-0.15083470940589905,-2.5546131134033203
1747275448952084000,8.101083984375,11.42752456665039,-0.3926490843296051,-1.867477297782898
1747275448968108300,8.1171083984375,11.583148002624512,-0.3734954595565796,-1.7190368175506592
1747275448984155100,8.133155029296875,6.2416839599609375,0.08379705995321274,-1.8986018896102905
1747275449000157700,8.14915771484375,8.664615631103516,0.7757213711738586,-3.9839515686035156
1747275449016217000,8.165217041015625,9.959878921508789,0.3016694188117981,-3.8786067962646484
1747275449032246800,8.181246826171876,9.68694019317627,0.4213795065879822,-2.2816741466522217
1747275449048275200,8.197275146484374,10.943896293640137,1.3000515699386597,-1.8076223134994507
1747275449064271400,8.213271240234375,10.062829971313477,1.7597382068634033,-3.0190882682800293
1747275449080269300,8.229269287109375,8.355764389038086,1.4460978507995605,-2.3080103397369385
1747275449096328700,8.24532861328125,7.5201873779296875,0.7350199222564697,-3.5745432376861572
1747275449112356900,8.26135693359375,8.822632789611816,-0.05267243832349777,-3.0550012588500977
1747275449128375600,8.27737548828125,9.516951560974121,-0.028730420395731926,-3.7876269817352295
1747275449144459300,8.293459228515625,10.532093048095703,0.3974374830722809,-4.908113479614258
1747275449160464600,8.309464599609376,10.867281913757324,0.7637503147125244,-6.121973514556885
1747275449176526600,8.325526611328126,10.680533409118652,0.9744400978088379,-6.232107162475586
1747275449192547000,8.341547119140625,9.852140426635742,1.1516109704971313,-4.69024133682251
1747275449208567000,8.357567138671875,9.157821655273438,0.9720458984375,-5.281609058380127
1747275449224617000,8.373616943359375,6.677428722381592,0.2968810200691223,-7.331045627593994
1747275449240608000,8.38960791015625,6.057330131530762,0.2968810200691223,-6.076483726501465
1747275449256666600,8.40566650390625,6.773196697235107,0.5363011956214905,-4.529829502105713
1747275449272699400,8.421699462890626,8.841787338256836,1.170764684677124,-4.529829502105713
1747275449288720000,8.437719970703125,10.11550235748291,1.0414776802062988,-4.800374507904053
1747275449304759300,8.45375927734375,11.295844078063965,1.3527239561080933,-4.587290287017822
1747275449320757200,8.46975732421875,11.384428977966309,1.8722656965255737,-3.9624037742614746
1747275449336777200,8.485777099609376,10.26394271850586,2.315192937850952,-3.6080620288848877
1747275449352811800,8.501811767578126,8.865729331970215,2.612074136734009,-4.280832767486572
1747275449368832800,8.517832763671874,8.760383605957031,2.5953147411346436,-3.974374771118164
1747275449384869600,8.53386962890625,8.329427719116211,2.557007312774658,-2.918531894683838
1747275449400866300,8.5498662109375,7.709329605102539,2.4612393379211426,-2.691082715988159
1747275449416935700,8.565935791015624,7.441178798675537,2.276885747909546,-2.075772762298584
1747275449432957200,8.581957275390625,7.115567684173584,2.315192937850952,-0.6392518281936646
1747275449448982300,8.597982177734375,7.3238630294799805,2.1499931812286377,-2.0661959648132324
1747275449465021700,8.614021728515626,7.757213592529297,3.1651346683502197,-1.1994950771331787
1747275449481054700,8.6300546875,8.214506149291992,3.9600095748901367,-2.2218191623687744
1747275449497113900,8.64611376953125,8.303091049194336,3.780444383621216,-3.2082302570343018
1747275449513154000,8.662154052734374,8.497021675109863,3.248931646347046,-2.5498247146606445
1747275449529178000,8.67817822265625,8.611943244934082,3.2369606494903564,-1.8818424940109253
1747275449545178000,8.69417822265625,8.374917984008789,3.339911460876465,-2.7988216876983643
1747275449561169200,8.710169189453126,8.145073890686035,3.883395195007324,-3.1938650608062744
1747275449577188900,8.72618896484375,8.485051155090332,3.6774938106536865,-4.10366153717041
1747275449593219800,8.7422197265625,9.174580574035645,4.132391929626465,-3.318363666534424
1747275449609246200,8.75824609375,8.853757858276367,4.0964789390563965,-2.806004285812378
1747275449625294300,8.77429443359375,8.547300338745117,3.361459255218506,-2.612074136734009
1747275449641321000,8.790321044921875,8.283937454223633,3.1914708614349365,-2.4899697303771973
1747275449657416000,8.806416015625,8.904036521911621,3.1747114658355713,-2.7126305103302
1747275449673460000,8.8224599609375,9.057265281677246,3.6391866207122803,-3.6343982219696045
1747275449689486800,8.83848681640625,9.287108421325684,4.316745758056641,-4.49870491027832
1747275449705531400,8.854531494140625,9.241618156433105,4.259284973144531,-5.128379821777344
1747275449721573600,8.87057373046875,9.746794700622559,3.00711727142334,-4.501099109649658
1747275449737637400,8.886637451171875,10.687716484069824,2.7269957065582275,-3.112462282180786
1747275449753672000,8.902671875,9.96945571899414,4.721365928649902,-2.0254945755004883
1747275449769696500,8.918696533203125,9.528923034667969,4.565742492675781,-3.0119056701660156
1747275449785696000,8.934696044921875,8.178592681884766,5.003881454467773,-4.525041103363037
1747275449801720300,8.95072021484375,7.079654216766357,4.9152960777282715,-5.643133640289307
1747275449817741600,8.966741455078125,6.653486728668213,3.050212860107422,-4.046200752258301
1747275449833767400,8.982767333984375,5.480327606201172,3.181894063949585,-3.272873640060425
1747275449849793000,8.99879296875,4.994304656982422,4.247313976287842,-3.5458126068115234
1747275449865836000,9.0148359375,4.446032524108887,5.104437828063965,-6.588842868804932
1747275449881834500,9.03083447265625,3.138798475265503,4.730942726135254,-9.239224433898926
1747275449897896400,9.046896484375,3.268085241317749,4.8602294921875,-9.923966407775879
1747275449913967600,9.062967529296875,4.474762916564941,3.8546648025512695,-8.56645393371582
1747275449929989600,9.07898974609375,5.95677375793457,3.383007049560547,-7.680599212646484
1747275449946027800,9.09502783203125,6.842628479003906,3.0142998695373535,-5.147533416748047
1747275449962059500,9.1110595703125,7.762001991271973,2.6384103298187256,-3.265691041946411
1747275449978122000,9.1271220703125,26.709714889526367,4.898536682128906,10.599130630493164
1747275449994157300,9.1431572265625,10.053253173828125,4.683058738708496,-8.820239067077637
1747275450010183400,9.159183349609375,8.877699851989746,4.671087741851807,-10.754754066467285
1747275450026182100,9.17518212890625,7.666234016418457,3.995922565460205,-8.147468566894531
1747275450042180000,9.19118017578125,2.873042106628418,1.7621324062347412,-8.20732307434082
1747275450058248700,9.207248779296876,1.0869675874710083,2.6024973392486572,-6.203376770019531
1747275450074278000,9.22327783203125,1.0031704902648926,4.67827033996582,-4.850652694702148
1747275450090306600,9.239306640625,2.0590133666992188,5.6670756340026855,-5.729324817657471
1747275450106376200,9.255376220703125,3.0310592651367188,5.731719017028809,-6.904877662658691
1747275450122408400,9.271408447265625,2.0614075660705566,4.4508209228515625,-7.841010570526123
1747275450138474200,9.28747412109375,1.7118542194366455,3.2369606494903564,-8.571242332458496
1747275450154505700,9.303505615234375,3.514688014984131,3.670311212539673,-8.779537200927734
1747275450170533000,9.319533203125,3.7708675861358643,5.037400245666504,-8.880094528198242
1747275450186580200,9.335580322265624,3.0837318897247314,5.901707172393799,-8.456320762634277
1747275450202589700,9.351589599609374,2.2673089504241943,4.3861775398254395,-8.348581314086914
1747275450218654500,9.367654541015625,-1.0295066833496094,6.102819919586182,-8.736441612243652
1747275450234691800,9.38369189453125,-1.0630255937576294,4.5394062995910645,-8.382100105285645
1747275450250721300,9.39972119140625,0.49320554733276367,5.846640586853027,-10.38604736328125
1747275450266767600,9.415767578125,-0.40222588181495667,5.971138954162598,-11.044452667236328
1747275450282791000,9.431791015625,-0.6871358752250671,5.410895824432373,-8.757989883422852
1747275450298837200,9.447837158203125,0.20350714027881622,5.367800235748291,-6.485892295837402
1747275450314876400,9.46387646484375,1.0127472877502441,5.054159641265869,-6.00226354598999
1747275450330903000,9.479903076171874,3.1076738834381104,3.5721490383148193,-6.0405707359313965
1747275450346948400,9.4959482421875,2.073378562927246,2.5330653190612793,-7.15387487411499
1747275450362946300,9.5119462890625,1.3910311460494995,2.2649147510528564,-7.405265808105469
1747275450379013400,9.528013427734376,-1.6735470294952393,0.33279404044151306,-5.583278179168701
1747275450395038200,9.5440380859375,-3.9001545906066895,3.40216064453125,-6.270414352416992
1747275450411069000,9.56006884765625,-4.185064792633057,4.3191399574279785,-0.7398083209991455
1747275450427117800,9.576117919921876,-5.5329999923706055,4.055777549743652,0.395043283700943
1747275450443150600,9.592150634765625,-5.475539207458496,4.580107688903809,-0.7469909191131592
1747275450459222800,9.608222900390626,-6.828263282775879,5.849034786224365,-1.4987702369689941
1747275450475262700,9.6242626953125,-7.773972988128662,5.5976433753967285,-0.08619125932455063
1747275450491292000,9.6402919921875,-6.890512466430664,4.144362926483154,1.9273324012756348
1747275450507295700,9.656295654296875,-6.248866558074951,2.7126305103302,1.2497732639312744
1747275450523298000,9.672298095703125,-6.660669326782227,2.80361008644104,-2.1811177730560303
1747275450539410000,9.688409912109375,-10.04846477508545,4.553771495819092,-4.687847137451172
1747275450555440000,9.704440185546876,-12.133813858032227,5.655104637145996,-3.7445313930511475
1747275450571476700,9.720476806640624,-12.112266540527344,3.7852327823638916,-0.43095630407333374
1747275450587520800,9.736520751953124,-8.40843677520752,1.8698714971542358,2.410961151123047
1747275450603549200,9.752549072265625,-9.955090522766113,1.920149803161621,1.403002142906189
1747275450619617800,9.76861767578125,-10.984597206115723,2.7102363109588623,-1.1851298809051514
1747275450635649000,9.78464892578125,-12.035652160644531,3.07415509223938,-2.650381326675415
1747275450651679700,9.8006796875,-12.289437294006348,2.561795711517334,-2.3247697353363037
1747275450667730400,9.81673046875,-12.052411079406738,1.764526605606079,-0.8092401623725891
1747275450683734300,9.832734375,-11.63342571258545,0.5746083855628967,0.5817909836769104
1747275450699799000,9.848799072265624,-9.923966407775879,0.5937620401382446,0.9576807022094727
1747275450715832000,9.86483203125,-9.35654067993164,1.5203180313110352,0.21308395266532898
1747275450731859700,9.880859619140624,-9.99100399017334,1.8363527059555054,-0.6224924325942993
1747275450747861500,9.896861572265625,-10.113107681274414,1.4987702369689941,-1.455674648284912
1747275450763850200,9.912850341796876,-10.335768699645996,1.0247182846069336,-1.2186486721038818
1747275450779882500,9.928882568359375,-10.177751541137695,0.24420857429504395,0.090979665517807
1747275450795926300,9.94492626953125,-9.715670585632324,-0.12210428714752197,1.4939818382263184
1747275450811952600,9.96095263671875,-10.613495826721191,0.9361328482627869,0.9241618514060974
1747275450828035300,9.977035400390625,-12.9741792678833,1.4844050407409668,-1.6400281190872192
1747275450844032000,9.993031982421876,-13.06755256652832,0.1364694982767105,-1.139639973640442
1747275450860095700,10.009095703125,-10.915165901184082,-1.0749965906143188,-0.35434186458587646
1747275450876116000,10.025115966796875,-9.48343276977539,-0.19393034279346466,-0.7350199222564697
1747275450892138800,10.041138671875,-9.751583099365234,0.45250412821769714,-0.47165772318840027
1747275450908180000,10.057179931640626,-9.849745750427246,0.7876923680305481,-0.06224924325942993
1747275450924180200,10.07318017578125,-9.313444137573242,0.6775590777397156,0.2082955539226532
1747275450940250400,10.08925048828125,-8.899248123168945,0.15562310814857483,-0.4908113479614258
1747275450956293400,10.10529345703125,-9.72285270690918,-0.3471592366695404,-0.4189853072166443
1747275450972319200,10.1213193359375,-10.524910926818848,0.08619125932455063,0.1843535304069519
1747275450988349400,10.137349365234375,-11.18092155456543,0.6009446382522583,0.7565677165985107
1747275451004346000,10.15334619140625,-9.30386734008789,0.07900865375995636,-0.13407529890537262
1747275451020360200,10.169360107421875,-9.964667320251465,0.2513911724090576,-0.5937620401382446
1747275451036403200,10.1854033203125,-9.890447616577148,0.40940847992897034,0.08379705995321274
1747275451052429000,10.201428955078125,-9.749189376831055,0.22266076505184174,0.3016694188117981
1747275451068481300,10.217481201171875,-9.897629737854004,0.05985504388809204,0.07900865375995636
1747275451084489000,10.233489013671875,-10.11789608001709,0.15801730751991272,0.33997663855552673
1747275451100565000,10.24956494140625,-9.706093788146973,-0.004788403399288654,0.5937620401382446
1747275451116607000,10.26560693359375,-10.019734382629395,-0.043095629662275314,0.1364694982767105
1747275451132634000,10.281634033203124,-9.636661529541016,-0.06703764945268631,-0.646434485912323
1747275451148686800,10.297686767578124,-9.545681953430176,0.2298433631658554,-0.19871874153614044
1747275451164683300,10.313683349609375,-9.84256362915039,0.08619125932455063,0.023942016065120697
1747275451180756500,10.329756591796874,-10.165780067443848,0.26815059781074524,-0.019153613597154617
1747275451196802600,10.345802490234375,-10.127472877502441,0.21547815203666687,-0.1604115068912506
1747275451212832000,10.36183203125,-9.478644371032715,0.019153613597154617,0.45010992884635925
1747275451228844800,10.3778447265625,-9.27034854888916,0.15322890877723694,0.38546648621559143
1747275451244857000,10.393857177734375,-7.206547260284424,0.1867477297782898,-0.10055647045373917
1747275451260889900,10.409889892578125,-8.255207061767578,-0.10295066982507706,-0.16998831927776337
1747275451276912000,10.425912109375,-7.960720539093018,-0.5051765441894531,-0.14604631066322327
1747275451292934400,10.441934326171875,-7.920019149780273,-0.751779317855835,-0.2322375625371933
1747275451309024300,10.458024169921876,-9.402029991149902,-0.1412578970193863,0.26096799969673157
1747275451325023200,10.474023193359375,-9.526528358459473,-0.17956513166427612,0.1628057211637497
1747275451341088300,10.490088134765625,-9.560047149658203,-0.12449848651885986,0.05267243832349777
1747275451357130800,10.506130859375,-10.1753568649292,-0.15083470940589905,0.011971008032560349
1747275451373157600,10.52215771484375,-9.919178009033203,-0.1628057211637497,0.06224924325942993
1747275451389213400,10.53821337890625,-9.794678688049316,-0.10773907601833344,0.10295066982507706
1747275451405273600,10.554273681640625,-9.916783332824707,-0.19393034279346466,0.016759412363171577
1747275451421340700,10.570340576171875,-9.68694019317627,-0.1628057211637497,0.0694318488240242
1747275451437384400,10.586384521484375,-9.835380554199219,-0.12928688526153564,0.07661445438861847
1747275451453410600,10.60241064453125,-9.940725326538086,-0.19871874153614044,0.06224924325942993
1747275451469422800,10.6184228515625,-9.765948295593262,-0.1628057211637497,0.05506663769483566
1747275451485425400,10.63442529296875,-9.864110946655273,-0.1364694982767105,0.07661445438861847
1747275451501460500,10.65046044921875,-9.921571731567383,-0.1867477297782898,0.07661445438861847
1747275451517508600,10.666508544921875,-9.854534149169922,-0.1412578970193863,0.07422025501728058
1747275451533536000,10.682535888671875,-9.821015357971191,-0.11252748221158981,0.08858546614646912
1747275451549590500,10.698590576171876,-9.86650562286377,-0.181959331035614,0.05746084079146385
1747275451565606100,10.714606201171875,-9.859322547912598,-0.12449848651885986,0.08379705995321274
1747275451581674200,10.73067431640625,-9.835380554199219,-0.1388636976480484,0.0933738648891449
1747275451597749200,10.746749267578124,-9.864110946655273,-0.181959331035614,0.033518824726343155
1747275451613772800,10.762772705078126,-9.849745750427246,-0.1628057211637497,0.05985504388809204
1747275451629829000,10.7788291015625,-9.816226959228516,-0.15083470940589905,0.090979665517807
1747275451645831700,10.794831787109375,-9.895236015319824,-0.17477671802043915,0.05985504388809204
1747275451661905000,10.81090478515625,-9.854534149169922,-0.1364694982767105,0.08379705995321274
1747275451677951000,10.826950927734375,-9.813833236694336,-0.1364694982767105,0.08858546614646912
1747275451693976300,10.842976318359375,-9.897629737854004,-0.14844051003456116,0.05746084079146385
1747275451709990000,10.858989990234376,-9.859322547912598,-0.14844051003456116,0.05506663769483566
1747275451726024200,10.875024169921875,-9.77791976928711,-0.1604115068912506,0.07661445438861847
1747275451742056000,10.891055908203125,-9.907206535339355,-0.15801730751991272,0.05985504388809204
1747275451758100700,10.907100830078125,-9.892841339111328,-0.15801730751991272,0.08140286058187485
1747275451774129700,10.923129638671876,-9.821015357971191,-0.13407529890537262,0.06703764945268631
1747275451790226700,10.939226806640624,-9.8784761428833,-0.15322890877723694,0.043095629662275314
1747275451806224400,10.955224365234375,-9.854534149169922,-0.16998831927776337,0.05985504388809204
1747275451822295800,10.9712958984375,-9.823410034179688,-0.13407529890537262,0.0694318488240242
1747275451838337000,10.9873369140625,-9.876082420349121,-0.14365209639072418,0.05027823522686958
1747275451854360600,11.003360595703125,-9.871294021606445,-0.1388636976480484,0.0694318488240242
1747275451870412300,11.019412353515625,-9.832986831665039,-0.12210428714752197,0.11013327538967133
1747275451886483200,11.035483154296875,-9.914389610290527,-0.1364694982767105,0.06224924325942993
1747275451902559200,11.051559326171875,-9.859322547912598,-0.1628057211637497,0.05506663769483566
1747275451918609000,11.06760888671875,-9.799467086791992,-0.15322890877723694,0.07182604819536209
1747275451934638800,11.083638916015625,-9.895236015319824,-0.16759411990642548,0.047884032130241394
1747275451950649600,11.099649658203125,-9.849745750427246,-0.16998831927776337,0.07182604819536209
1747275451966649600,11.115649658203125,-9.832986831665039,-0.15322890877723694,0.08619125932455063
1747275451982683600,11.13168359375,-9.888052940368652,-0.16998831927776337,0.06224924325942993
1747275451998728000,11.14772802734375,-9.864110946655273,-0.14844051003456116,0.06464344263076782
1747275452014753000,11.1637529296875,-9.847352027893066,-0.13407529890537262,0.05985504388809204
1747275452030812700,11.179812744140625,-9.861717224121094,-0.16759411990642548,0.047884032130241394
1747275452046847700,11.19584765625,-9.852140426635742,-0.16519992053508759,0.0694318488240242
1747275452062925300,11.21192529296875,-9.852140426635742,-0.14365209639072418,0.07182604819536209
1747275452078990600,11.227990478515625,-9.895236015319824,-0.181959331035614,0.07661445438861847
1747275452095014400,11.244014404296875,-9.86889934539795,-0.14604631066322327,0.0694318488240242
1747275452111064600,11.260064697265625,-9.837775230407715,-0.1388636976480484,0.08858546614646912
1747275452127058000,11.276057861328125,-9.861717224121094,-0.15083470940589905,0.0694318488240242
1747275452143126500,11.29212646484375,-9.864110946655273,-0.1388636976480484,0.05985504388809204
1747275452159169500,11.30816943359375,-9.837775230407715,-0.15562310814857483,0.043095629662275314
1747275452175194400,11.3241943359375,-9.871294021606445,-0.15322890877723694,0.06224924325942993
1747275452191204600,11.34020458984375,-9.883264541625977,-0.14604631066322327,0.090979665517807
1747275452207247000,11.3562470703125,-9.828198432922363,-0.1388636976480484,0.07900865375995636
1747275452223284000,11.372283935546875,-9.861717224121094,-0.16759411990642548,0.05027823522686958
1747275452239331800,11.388331787109376,-9.84256362915039,-0.17477671802043915,0.0694318488240242
1747275452255357700,11.404357666015626,-9.849745750427246,-0.1388636976480484,0.07661445438861847
1747275452271447600,11.420447509765625,-9.93354320526123,-0.1388636976480484,0.07182604819536209
1747275452287441400,11.43644140625,-9.873687744140625,-0.12928688526153564,0.10534487664699554
1747275452303516700,11.4525166015625,-9.86650562286377,-0.12449848651885986,0.08379705995321274
1747275452319559000,11.468558837890624,-9.885659217834473,-0.17717093229293823,0.06464344263076782
1747275452335609600,11.484609619140626,-9.823410034179688,-0.14844051003456116,0.0694318488240242
1747275452351665200,11.5006650390625,-9.792284965515137,-0.15083470940589905,0.0454898327589035
1747275452367690500,11.5166904296875,-9.852140426635742,-0.17717093229293823,0.05746084079146385
1747275452383762700,11.5327626953125,-9.897629737854004,-0.13407529890537262,0.07661445438861847
1747275452399802000,11.548802001953124,-9.895236015319824,-0.13168109953403473,0.10773907601833344
1747275452415824400,11.564824462890625,-9.907206535339355,-0.1364694982767105,0.09576806426048279
1747275452431834400,11.58083447265625,-9.852140426635742,-0.1388636976480484,0.07422025501728058
1747275452447842000,11.596842041015625,-9.835380554199219,-0.15322890877723694,0.07422025501728058
1747275452463877000,11.612877197265625,-9.852140426635742,-0.16998831927776337,0.05027823522686958
1747275452479918300,11.62891845703125,-9.828198432922363,-0.15562310814857483,0.06224924325942993
1747275452495945500,11.644945556640625,-9.86650562286377,-0.14365209639072418,0.08619125932455063
1747275452511957500,11.66095751953125,-9.9000244140625,-0.14604631066322327,0.10295066982507706
1747275452527947800,11.67694775390625,-9.8784761428833,-0.15083470940589905,0.11252748221158981
1747275452543977500,11.6929775390625,-9.837775230407715,-0.14844051003456116,0.07182604819536209
1747275452560066800,11.70906689453125,-9.830592155456543,-0.17238251864910126,0.05267243832349777
1747275452576095000,11.725094970703125,-9.830592155456543,-0.16998831927776337,0.06464344263076782
1747275452592192500,11.741192626953126,-9.847352027893066,-0.15801730751991272,0.05506663769483566
1747275452608189700,11.757189697265625,-9.8784761428833,-0.14365209639072418,0.08379705995321274
1747275452624223000,11.773222900390625,-9.8784761428833,-0.1412578970193863,0.10055647045373917
1747275452640262100,11.78926220703125,-9.897629737854004,-0.15322890877723694,0.0694318488240242
1747275452656286700,11.80528662109375,-9.861717224121094,-0.17238251864910126,0.05267243832349777
1747275452672294700,11.821294677734375,-9.799467086791992,-0.16759411990642548,0.047884032130241394
1747275452688290300,11.837290283203124,-9.832986831665039,-0.17477671802043915,0.05506663769483566
1747275452704322800,11.85332275390625,-9.885659217834473,-0.15801730751991272,0.09576806426048279
1747275452720367400,11.869367431640624,-9.859322547912598,-0.14365209639072418,0.08858546614646912
1747275452736394200,11.885394287109374,-9.890447616577148,-0.1412578970193863,0.07422025501728058
1747275452760450300,11.9094501953125,-9.871294021606445,-0.14604631066322327,0.07422025501728058
1747275452776479500,11.9254794921875,-9.84256362915039,-0.15083470940589905,0.05746084079146385
1747275452792486700,11.941486572265624,-9.840168952941895,-0.14365209639072418,0.038307227194309235
1747275452808513300,11.95751318359375,-9.835380554199219,-0.15801730751991272,0.06703764945268631
1747275452824542700,11.973542724609375,-9.873687744140625,-0.13407529890537262,0.07900865375995636
1747275452840550700,11.989550537109375,-9.888052940368652,-0.14604631066322327,0.08619125932455063
1747275452856576800,12.00557666015625,-9.86889934539795,-0.15801730751991272,0.08379705995321274
1747275452872588500,12.021588623046876,-9.849745750427246,-0.15801730751991272,0.07900865375995636
1747275452888622600,12.03762255859375,-9.832986831665039,-0.1604115068912506,0.07182604819536209
1747275452904650800,12.053650634765624,-9.852140426635742,-0.15562310814857483,0.033518824726343155
1747275452920658200,12.069658203125,-9.849745750427246,-0.15083470940589905,0.08140286058187485
1747275452936686600,12.0856865234375,-9.86650562286377,-0.1388636976480484,0.07182604819536209
1747275452952694800,12.10169482421875,-9.888052940368652,-0.15083470940589905,0.09576806426048279
1747275452968727000,12.11772705078125,-9.861717224121094,-0.15801730751991272,0.06703764945268631
1747275452984758500,12.133758544921875,-9.837775230407715,-0.17477671802043915,0.07182604819536209
1747275453000761000,12.149760986328126,-9.854534149169922,-0.16998831927776337,0.05027823522686958
1747275453016789500,12.16578955078125,-9.84256362915039,-0.17477671802043915,0.05267243832349777
1747275453032808000,12.181807861328124,-9.86650562286377,-0.17717093229293823,0.05267243832349777
1747275453048871400,12.197871337890625,-9.883264541625977,-0.14844051003456116,0.08379705995321274
1747275453064898600,12.213898681640625,-9.861717224121094,-0.1388636976480484,0.07661445438861847
1747275453080905500,12.229905517578125,-9.86650562286377,-0.14365209639072418,0.08379705995321274
1747275453096934700,12.2459345703125,-9.873687744140625,-0.14844051003456116,0.07661445438861847
1747275453112946400,12.261946533203124,-9.840168952941895,-0.17477671802043915,0.0454898327589035
1747275453128979200,12.277979248046876,-9.859322547912598,-0.15801730751991272,0.08379705995321274
1747275453145014800,12.294014892578126,-9.861717224121094,-0.16759411990642548,0.06224924325942993
1747275453161032700,12.31003271484375,-9.852140426635742,-0.14844051003456116,0.07422025501728058
1747275453177063000,12.32606298828125,-9.8784761428833,-0.14604631066322327,0.08619125932455063
1747275453193076700,12.34207666015625,-9.876082420349121,-0.15083470940589905,0.08619125932455063
1747275453209107200,12.358107177734375,-9.849745750427246,-0.13168109953403473,0.07900865375995636
1747275453225133600,12.374133544921875,-9.830592155456543,-0.1412578970193863,0.06224924325942993
1747275453241143300,12.390143310546875,-9.849745750427246,-0.17238251864910126,0.047884032130241394
1747275453257172200,12.406172119140624,-9.859322547912598,-0.13407529890537262,0.07900865375995636
1747275453273182200,12.42218212890625,-9.880870819091797,-0.12928688526153564,0.0694318488240242
1747275453289213200,12.438213134765626,-9.885659217834473,-0.15322890877723694,0.07900865375995636
1747275453305243100,12.4542431640625,-9.883264541625977,-0.13168109953403473,0.090979665517807
1747275453321267000,12.470266845703126,-9.854534149169922,-0.16759411990642548,0.05746084079146385
1747275453337317600,12.486317626953126,-9.840168952941895,-0.17477671802043915,0.05746084079146385
1747275453353326000,12.502326171875,-9.837775230407715,-0.15562310814857483,0.07422025501728058
1747275453369356000,12.51835595703125,-9.864110946655273,-0.15322890877723694,0.05027823522686958
1747275453385388300,12.53438818359375,-9.873687744140625,-0.12689268589019775,0.07182604819536209
1747275453401399000,12.55039892578125,-9.86889934539795,-0.15562310814857483,0.08140286058187485
1747275453417431300,12.566431396484376,-9.876082420349121,-0.15322890877723694,0.07661445438861847
1747275453433443000,12.582443115234375,-9.847352027893066,-0.15562310814857483,0.06464344263076782
1747275453449475000,12.59847509765625,-9.840168952941895,-0.17238251864910126,0.07661445438861847
1747275453465504300,12.614504150390625,-9.852140426635742,-0.16759411990642548,0.05985504388809204
1747275453481529300,12.630529296875,-9.86650562286377,-0.1412578970193863,0.06703764945268631
1747275453497561900,12.646561767578126,-9.856928825378418,-0.1604115068912506,0.08379705995321274
1747275453513576200,12.662576171875,-9.883264541625977,-0.15083470940589905,0.08140286058187485
1747275453529612300,12.6786123046875,-9.859322547912598,-0.12449848651885986,0.07182604819536209
1747275453545646300,12.694646240234375,-9.854534149169922,-0.15801730751991272,0.06703764945268631
1747275453561660400,12.710660400390625,-9.859322547912598,-0.1628057211637497,0.043095629662275314
1747275453577694500,12.726694580078124,-9.84495735168457,-0.1388636976480484,0.05027823522686958
1747275453593709800,12.742709716796876,-9.859322547912598,-0.14604631066322327,0.07422025501728058
1747275453609742800,12.758742919921875,-9.876082420349121,-0.15322890877723694,0.07900865375995636
1747275453625774800,12.77477490234375,-9.861717224121094,-0.14365209639072418,0.08140286058187485
1747275453641801000,12.790801025390625,-9.861717224121094,-0.15322890877723694,0.05985504388809204
1747275453657833200,12.806833251953124,-9.847352027893066,-0.15083470940589905,0.07900865375995636
1747275453673865700,12.82286572265625,-9.847352027893066,-0.15083470940589905,0.08619125932455063
1747275453689898000,12.83889794921875,-9.837775230407715,-0.15083470940589905,0.05746084079146385
1747275453705932000,12.85493212890625,-9.854534149169922,-0.15562310814857483,0.06703764945268631
1747275453721948000,12.870947998046875,-9.861717224121094,-0.14365209639072418,0.08619125932455063
1747275453737981000,12.88698095703125,-9.86889934539795,-0.1388636976480484,0.07182604819536209
1747275453753985500,12.902985595703125,-9.86650562286377,-0.15083470940589905,0.0694318488240242
1747275453770012700,12.9190126953125,-9.835380554199219,-0.15322890877723694,0.06464344263076782
1747275453786041000,12.935041015625,-9.835380554199219,-0.15801730751991272,0.06464344263076782
1747275453802076000,12.951075927734376,-9.852140426635742,-0.16998831927776337,0.06703764945268631
1747275453818109000,12.96710888671875,-9.86889934539795,-0.15562310814857483,0.06224924325942993
1747275453834126600,12.983126708984376,-9.854534149169922,-0.15322890877723694,0.07900865375995636
1747275453850162000,12.999161865234376,-9.885659217834473,-0.15322890877723694,0.06703764945268631
1747275453866192000,13.01519189453125,-9.849745750427246,-0.14365209639072418,0.07900865375995636
1747275453882198000,13.031197998046874,-9.849745750427246,-0.14365209639072418,0.07900865375995636
1747275453898229500,13.0472294921875,-9.849745750427246,-0.17477671802043915,0.047884032130241394
1747275453914244900,13.063244873046875,-9.849745750427246,-0.15562310814857483,0.07900865375995636
1747275453930279000,13.07927880859375,-9.847352027893066,-0.1364694982767105,0.06703764945268631
1747275453946312200,13.095312255859374,-9.86889934539795,-0.14365209639072418,0.06224924325942993
1747275453962349600,13.111349609375,-9.880870819091797,-0.13407529890537262,0.08140286058187485
1747275453978381000,13.127381103515624,-9.86889934539795,-0.15801730751991272,0.0694318488240242
1747275453994390800,13.143390869140624,-9.856928825378418,-0.16759411990642548,0.05506663769483566
1747275454010458600,13.159458740234374,-9.849745750427246,-0.15322890877723694,0.07900865375995636
1747275454026492700,13.17549267578125,-9.859322547912598,-0.1628057211637497,0.08619125932455063
1747275454042503700,13.191503662109374,-9.86889934539795,-0.16519992053508759,0.07182604819536209
1747275454058531300,13.20753125,-9.854534149169922,-0.1628057211637497,0.07661445438861847
1747275454074542000,13.2235419921875,-9.852140426635742,-0.14604631066322327,0.07422025501728058
1747275454090572300,13.239572265625,-9.856928825378418,-0.14365209639072418,0.05027823522686958
1747275454106600700,13.2556005859375,-9.852140426635742,-0.14365209639072418,0.05985504388809204
1747275454122705400,13.271705322265625,-9.837775230407715,-0.1604115068912506,0.05985504388809204
1747275454138734300,13.287734375,-9.86650562286377,-0.1604115068912506,0.08379705995321274
1747275454154745900,13.303745849609374,-9.873687744140625,-0.14844051003456116,0.08858546614646912
1747275454170777300,13.31977734375,-9.86650562286377,-0.13407529890537262,0.07900865375995636
1747275454186811000,13.335810791015625,-9.86889934539795,-0.14365209639072418,0.08379705995321274
1747275454202822100,13.351822265625,-9.849745750427246,-0.14844051003456116,0.07422025501728058
1747275454218854100,13.367854248046875,-9.84256362915039,-0.1604115068912506,0.05746084079146385
1747275454234869000,13.383868896484374,-9.847352027893066,-0.15562310814857483,0.06224924325942993
1747275454250901800,13.39990185546875,-9.854534149169922,-0.16998831927776337,0.08379705995321274
1747275454266930400,13.415930419921875,-9.880870819091797,-0.1364694982767105,0.07182604819536209
1747275454282981400,13.4319814453125,-9.859322547912598,-0.1628057211637497,0.08379705995321274
1747275454299008300,13.44800830078125,-9.859322547912598,-0.13407529890537262,0.05985504388809204
1747275454315069000,13.46406884765625,-9.856928825378418,-0.15322890877723694,0.06224924325942993
1747275454331103000,13.48010302734375,-9.864110946655273,-0.17717093229293823,0.06464344263076782
1747275454347131100,13.496131103515625,-9.859322547912598,-0.1364694982767105,0.08858546614646912
1747275454363137000,13.512136962890626,-9.849745750427246,-0.14604631066322327,0.0694318488240242
1747275454379165000,13.5281650390625,-9.871294021606445,-0.14844051003456116,0.07422025501728058
1747275454395177500,13.544177490234375,-9.86650562286377,-0.13407529890537262,0.08140286058187485
1747275454411209700,13.560209716796875,-9.873687744140625,-0.1604115068912506,0.05506663769483566
1747275454427239000,13.576239013671875,-9.828198432922363,-0.15083470940589905,0.06703764945268631
1747275454443282000,13.592281982421875,-9.847352027893066,-0.14844051003456116,0.05985504388809204
1747275454459308300,13.608308349609375,-9.859322547912598,-0.16998831927776337,0.07661445438861847
1747275454475318500,13.624318603515626,-9.859322547912598,-0.15083470940589905,0.07661445438861847
1747275454491374000,13.6403740234375,-9.861717224121094,-0.14365209639072418,0.07661445438861847
1747275454507404800,13.65640478515625,-9.8784761428833,-0.15083470940589905,0.06703764945268631
1747275454523414000,13.6724140625,-9.861717224121094,-0.15083470940589905,0.07900865375995636
1747275454539441400,13.68844140625,-9.840168952941895,-0.15801730751991272,0.06224924325942993
1747275454555452200,13.7044521484375,-9.852140426635742,-0.15801730751991272,0.06464344263076782
1747275454571482000,13.720482177734375,-9.847352027893066,-0.14604631066322327,0.08619125932455063
1747275454587511300,13.73651123046875,-9.854534149169922,-0.15322890877723694,0.090979665517807
1747275454603516000,13.752515869140625,-9.880870819091797,-0.1412578970193863,0.08140286058187485
1747275454619547100,13.768547119140624,-9.856928825378418,-0.1388636976480484,0.08140286058187485
1747275454635559000,13.784558837890625,-9.856928825378418,-0.15083470940589905,0.07182604819536209
1747275454651591000,13.8005908203125,-9.847352027893066,-0.14604631066322327,0.05506663769483566
1747275454667622100,13.8166220703125,-9.84256362915039,-0.15801730751991272,0.06224924325942993
1747275454683668500,13.83266845703125,-9.859322547912598,-0.15083470940589905,0.06703764945268631
1747275454699697200,13.848697265625,-9.873687744140625,-0.1628057211637497,0.07900865375995636
1747275454715709400,13.86470947265625,-9.864110946655273,-0.12689268589019775,0.08379705995321274
1747275454731743500,13.880743408203125,-9.871294021606445,-0.14844051003456116,0.08140286058187485
1747275454747775200,13.896775146484375,-9.859322547912598,-0.14365209639072418,0.07182604819536209
1747275454763791400,13.912791259765624,-9.852140426635742,-0.14365209639072418,0.07900865375995636
1747275454779867400,13.928867431640626,-9.861717224121094,-0.1628057211637497,0.05506663769483566
1747275454795881000,13.944880859375,-9.856928825378418,-0.16759411990642548,0.07661445438861847
1747275454811921000,13.9609208984375,-9.856928825378418,-0.13407529890537262,0.08140286058187485
1747275454827941400,13.97694140625,-9.852140426635742,-0.14604631066322327,0.06464344263076782
1747275454843950800,13.992950927734375,-9.856928825378418,-0.1412578970193863,0.07661445438861847
1747275454859980300,14.008980224609376,-9.856928825378418,-0.16998831927776337,0.06703764945268631
1747275454875986200,14.024986083984375,-9.84256362915039,-0.16998831927776337,0.05267243832349777
1747275454892010000,14.041010009765625,-9.86889934539795,-0.15083470940589905,0.06703764945268631
1747275454908040200,14.057040283203126,-9.856928825378418,-0.1364694982767105,0.0694318488240242
1747275454924049400,14.07304931640625,-9.852140426635742,-0.1628057211637497,0.07422025501728058
1747275454940078300,14.089078369140625,-9.871294021606445,-0.14604631066322327,0.08140286058187485
1747275454956087600,14.105087646484375,-9.84495735168457,-0.1628057211637497,0.0933738648891449
1747275454972163600,14.12116357421875,-9.854534149169922,-0.15801730751991272,0.06224924325942993
1747275454988193800,14.13719384765625,-9.854534149169922,-0.15083470940589905,0.07661445438861847
1747275455004227300,14.153227294921875,-9.864110946655273,-0.14844051003456116,0.05506663769483566
1747275455020252000,14.169251953125,-9.861717224121094,-0.13407529890537262,0.10055647045373917
1747275455036285400,14.185285400390624,-9.8784761428833,-0.14844051003456116,0.0694318488240242
1747275455052317700,14.201317626953125,-9.86650562286377,-0.1364694982767105,0.07900865375995636
1747275455068339500,14.21733935546875,-9.871294021606445,-0.15322890877723694,0.07661445438861847
1747275455084348200,14.23334814453125,-9.859322547912598,-0.14844051003456116,0.05746084079146385
1747275455100374800,14.249374755859375,-9.854534149169922,-0.15801730751991272,0.07422025501728058
1747275455124414700,14.273414794921875,-9.86650562286377,-0.15083470940589905,0.08379705995321274
1747275455140442400,14.2894423828125,-9.864110946655273,-0.14844051003456116,0.06464344263076782
1747275455156502300,14.305502197265625,-9.86889934539795,-0.15562310814857483,0.08619125932455063
1747275455172500700,14.321500732421875,-9.861717224121094,-0.15322890877723694,0.07661445438861847
1747275455188532000,14.337531982421876,-9.849745750427246,-0.14365209639072418,0.08140286058187485
1747275455204569000,14.353569091796874,-9.84495735168457,-0.16519992053508759,0.07182604819536209
1747275455220591000,14.369591064453125,-9.86650562286377,-0.1604115068912506,0.07422025501728058
1747275455236600000,14.38560009765625,-9.847352027893066,-0.15322890877723694,0.07900865375995636
1747275455252608000,14.40160791015625,-9.86650562286377,-0.1364694982767105,0.08379705995321274
1747275455268639000,14.417638916015624,-9.86889934539795,-0.1412578970193863,0.06224924325942993
1747275455284678100,14.43367822265625,-9.856928825378418,-0.15562310814857483,0.07422025501728058
1747275455300701400,14.449701416015625,-9.859322547912598,-0.15083470940589905,0.08140286058187485
1747275455316707600,14.46570751953125,-9.859322547912598,-0.16998831927776337,0.06703764945268631
1747275455332701700,14.48170166015625,-9.847352027893066,-0.1412578970193863,0.0694318488240242
1747275455348732700,14.497732666015626,-9.859322547912598,-0.1412578970193863,0.08140286058187485
1747275455364767700,14.513767822265624,-9.86889934539795,-0.1388636976480484,0.05985504388809204
1747275455380786700,14.52978662109375,-9.876082420349121,-0.1604115068912506,0.08140286058187485
1747275455396796700,14.545796630859375,-9.854534149169922,-0.15083470940589905,0.07900865375995636
1747275455412805400,14.561805419921875,-9.86889934539795,-0.1412578970193863,0.05985504388809204
1747275455428837600,14.577837646484374,-9.854534149169922,-0.1364694982767105,0.0694318488240242
1747275455444930300,14.593930419921875,-9.854534149169922,-0.1604115068912506,0.07900865375995636
1747275455460958500,14.60995849609375,-9.86650562286377,-0.15083470940589905,0.07661445438861847
1747275455476970800,14.625970703125,-9.871294021606445,-0.15801730751991272,0.07182604819536209
1747275455492968000,14.641968017578124,-9.856928825378418,-0.14365209639072418,0.06464344263076782
1747275455508998400,14.657998291015625,-9.99339771270752,-0.16519992053508759,0.07422025501728058
1747275455525043000,14.67404296875,-9.852140426635742,-0.1628057211637497,0.08140286058187485
1747275455541068800,14.69006884765625,-9.81143856048584,-0.13407529890537262,0.05746084079146385
1747275455557079000,14.7060791015625,-9.892841339111328,-0.16759411990642548,0.08858546614646912
1747275455581118700,14.73011865234375,-9.856928825378418,-0.14604631066322327,0.0933738648891449
1747275455597134000,14.746134033203125,-9.861717224121094,-0.15801730751991272,0.08140286058187485
1747275455613166600,14.76216650390625,-9.849745750427246,-0.1604115068912506,0.0694318488240242
1747275455629195800,14.77819580078125,-9.859322547912598,-0.15083470940589905,0.07422025501728058
1747275455645244400,14.794244384765625,-9.847352027893066,-0.1412578970193863,0.0694318488240242
1747275455661277200,14.810277099609374,-9.950302124023438,-0.16759411990642548,0.05746084079146385
1747275455677288200,14.8262880859375,-9.888052940368652,-0.1628057211637497,0.08858546614646912
1747275455693316900,14.84231689453125,-9.84256362915039,-0.1364694982767105,0.06224924325942993
1747275455709346000,14.858345947265626,-9.909601211547852,-0.17956513166427612,0.05985504388809204
1747275455725375500,14.87437548828125,-9.849745750427246,-0.14844051003456116,0.08140286058187485
1747275455741403100,14.890403076171875,-9.840168952941895,-0.1628057211637497,0.06703764945268631
1747275455757413600,14.90641357421875,-9.909601211547852,-0.16998831927776337,0.06464344263076782
1747275455773440300,14.922440185546876,-9.835380554199219,-0.15562310814857483,0.06703764945268631
1747275455789465300,14.93846533203125,-9.84495735168457,-0.14844051003456116,0.0454898327589035
1747275455805472000,14.954471923828125,-9.892841339111328,-0.16519992053508759,0.07900865375995636
1747275455821500400,14.97050048828125,-9.813833236694336,-0.1412578970193863,0.07422025501728058
1747275455837509000,14.986509033203125,-9.849745750427246,-0.1412578970193863,0.07900865375995636
1747275455853540000,15.0025400390625,-9.873687744140625,-0.1604115068912506,0.05985504388809204
1747275455869569300,15.0185693359375,-9.847352027893066,-0.15322890877723694,0.06703764945268631
1747275455885595000,15.034594970703125,-9.86650562286377,-0.14844051003456116,0.06703764945268631
1747275455901620700,15.050620849609375,-9.883264541625977,-0.16519992053508759,0.07661445438861847
1747275455917627000,15.066626953125,-9.84256362915039,-0.1364694982767105,0.06224924325942993
1747275455933660700,15.08266064453125,-9.86650562286377,-0.15562310814857483,0.07182604819536209
1747275455949690000,15.098690185546875,-9.86650562286377,-0.14844051003456116,0.06703764945268631
1747275455965697000,15.114697021484375,-9.84256362915039,-0.14844051003456116,0.08379705995321274
1747275455981725700,15.1307255859375,-9.859322547912598,-0.15083470940589905,0.07661445438861847
1747275455997735400,15.1467353515625,-9.876082420349121,-0.15322890877723694,0.06224924325942993
1747275456013768400,15.1627685546875,-9.852140426635742,-0.1604115068912506,0.07182604819536209
1747275456029801700,15.1788017578125,-9.856928825378418,-0.15083470940589905,0.07900865375995636
1747275456045839000,15.194839111328125,-9.852140426635742,-0.15083470940589905,0.06464344263076782
1747275456061866800,15.21086669921875,-9.849745750427246,-0.12928688526153564,0.05746084079146385
1747275456077878000,15.2268779296875,-9.828198432922363,-0.12928688526153564,0.05027823522686958
1747275456093911300,15.242911376953124,-9.859322547912598,-0.15562310814857483,0.06703764945268631
1747275456109942500,15.258942626953125,-9.677363395690918,-0.16998831927776337,0.0694318488240242
1747275456125948200,15.2749482421875,-9.732429504394531,-0.22744916379451752,0.035913024097681046
1747275456141974000,15.29097412109375,-10.287884712219238,-0.18914192914962769,-0.035913024097681046
1747275456157985500,15.306985595703125,-9.792284965515137,-0.05267243832349777,0.27054479718208313
1747275456174013400,15.323013427734375,-9.761159896850586,0.0694318488240242,0.1628057211637497
1747275456190050800,15.33905078125,-10.11550235748291,-0.1867477297782898,-0.031124621629714966
1747275456206086100,15.355086181640624,-9.684545516967773,-0.2346317619085312,0.07422025501728058
1747275456222115600,15.371115478515625,-9.624691009521484,-0.17477671802043915,0.033518824726343155
1747275456238127000,15.387127197265626,-9.861717224121094,-0.2849099934101105,-0.12210428714752197
1747275456254159000,15.4031591796875,-9.821015357971191,-0.15562310814857483,0.0694318488240242
1747275456270189600,15.419189453125,-9.962273597717285,0.033518824726343155,0.24181437492370605
1747275456286199000,15.435198974609374,-10.120290756225586,-0.16759411990642548,0.17956513166427612
1747275456302227700,15.451227783203125,-9.849745750427246,-0.11013327538967133,0.06703764945268631
1747275456318235600,15.467235595703125,-9.619902610778809,-0.12449848651885986,0.004788403399288654
1747275456334288000,15.483287841796875,-9.849745750427246,-0.2753331959247589,-0.0454898327589035
1747275456358325500,15.507325439453124,-9.761159896850586,-0.1149216815829277,0.07422025501728058
1747275456374352000,15.523351806640624,-9.856928825378418,-0.15322890877723694,0.09816227108240128
1747275456390387000,15.539386962890624,-10.089165687561035,-0.10295066982507706,0.16998831927776337
1747275456406431200,15.55543115234375,-9.95748519897461,-0.0454898327589035,0.22505496442317963
1747275456422457300,15.571457275390625,-9.821015357971191,-0.17717093229293823,0.0454898327589035
1747275456438470400,15.587470458984376,-9.785101890563965,-0.24420857429504395,-0.0694318488240242
1747275456454469600,15.6034697265625,-9.639056205749512,-0.19632454216480255,0.019153613597154617
1747275456470501600,15.619501708984375,-9.835380554199219,-0.2082955539226532,0.040701430290937424
1747275456486542300,15.635542236328124,-9.983820915222168,-0.14844051003456116,0.08858546614646912
1747275456502567000,15.65156689453125,-9.876082420349121,-0.040701430290937424,0.17477671802043915
1747275456518575600,15.66757568359375,-9.959878921508789,-0.07661445438861847,0.10534487664699554
1747275456534607600,15.683607666015625,-9.998186111450195,-0.14604631066322327,0.0694318488240242
1747275456550639600,15.6996396484375,-9.708487510681152,-0.17238251864910126,0.019153613597154617
1747275456566682600,15.7156826171875,-9.694122314453125,-0.21787235140800476,-0.026336219161748886
1747275456582707700,15.731707763671874,-9.861717224121094,-0.1867477297782898,0.016759412363171577
1747275456598716400,15.74771630859375,-9.859322547912598,-0.11252748221158981,0.12689268589019775
1747275456614710300,15.763710205078125,-9.959878921508789,-0.12210428714752197,0.14844051003456116
1747275456630739200,15.7797392578125,-9.955090522766113,-1.6424223184585571,1.0055646896362305
1747275456646768600,15.7957685546875,-9.77791976928711,-1.137245774269104,0.6200982332229614
1747275456662791400,15.81179150390625,-9.837775230407715,0.3998316824436188,-0.2322375625371933
1747275456678794500,15.82779443359375,-9.804255485534668,0.7469909191131592,-1.0773907899856567
1747275456694818800,15.84381884765625,-9.837775230407715,0.30885201692581177,-0.6631938815116882
1747275456710841900,15.859841796875,-10.280701637268066,-0.011971008032560349,-0.2322375625371933
1747275456726879200,15.875879150390626,-9.921571731567383,-0.7805097699165344,-0.706289529800415
1747275456742901800,15.89190185546875,-9.617507934570312,-0.9528923034667969,-0.608127236366272
1747275456758907600,15.90790771484375,-9.890447616577148,-0.3974374830722809,-0.2992752194404602
1747275456774905600,15.923905517578126,-9.84495735168457,0.09576806426048279,0.23702596127986908
1747275456790935600,15.939935546875,-9.715670585632324,-0.7134721279144287,0
1747275456806973700,15.9559736328125,-10.376470565795898,-1.5131354331970215,0.6129156351089478
1747275456822995200,15.9719951171875,-10.611102104187012,-1.5825673341751099,1.4676456451416016
1747275456838999000,15.9879990234375,-11.276689529418945,-0.2346317619085312,-0.16519992053508759
1747275456855031800,16.00403173828125,-11.39400577545166,0.23942017555236816,-2.1523873805999756
1747275456871095800,16.020095703125,-12.7946138381958,0.3064578175544739,-2.7940332889556885
1747275456887117600,16.03611767578125,-13.488932609558105,-1.7046716213226318,0.8068459630012512
1747275456903142700,16.052142578125,-13.51766300201416,-2.5546131134033203,0.6009446382522583
1747275456919185700,16.068185546875,-12.624625205993652,-1.4221558570861816,-1.5634137392044067
1747275456935178200,16.08417822265625,-10.508151054382324,-1.525106430053711,-2.7916390895843506
1747275456951238700,16.10023876953125,-8.647856712341309,0.8595184087753296,-6.248866558074951
1747275456967259100,16.116259033203125,-10.290278434753418,1.5298948287963867,-8.47547435760498
1747275456983284000,16.132283935546877,-12.073959350585938,1.1635819673538208,-7.139509677886963
1747275456999324000,16.148323974609376,-13.658920288085938,0.31842881441116333,-5.353435039520264
1747275457015343400,16.16434326171875,-14.125789642333984,0.2059013396501541,-5.085284233093262
1747275457031362000,16.180362060546877,-12.899958610534668,0.22505496442317963,-5.652710437774658
1747275457047386000,16.19638623046875,-10.769119262695312,2.2673089504241943,-6.7923502922058105
1747275457063409700,16.21240966796875,-8.918401718139648,0.9026140570640564,-5.212177276611328
1747275457079450000,16.2284501953125,-6.212953567504883,0.9720458984375,-5.240907669067383
1747275457095444000,16.24444384765625,-4.134786128997803,2.140416383743286,-6.689399719238281
1747275457111458300,16.260458251953125,-3.315969467163086,3.050212860107422,-6.524199485778809
1747275457127481000,16.276481201171876,-2.719813108444214,2.6599581241607666,-4.9583916664123535
1747275457143507000,16.2925068359375,-1.9369091987609863,1.8267759084701538,-4.015076160430908
1747275457159546400,16.30854638671875,-0.828393816947937,1.403002142906189,-4.055777549743652
1747275457175567600,16.324567626953126,0.3711012601852417,1.8148049116134644,-5.197812080383301
1747275457191630000,16.340630126953126,2.1978771686553955,1.9943699836730957,-4.95120906829834
1747275457207653400,16.3566533203125,3.071760892868042,2.6192567348480225,-3.9647979736328125
1747275457223679200,16.37267919921875,3.73016619682312,3.2297780513763428,-3.533841609954834
1747275457239721000,16.388720947265625,3.7277719974517822,4.350264549255371,-4.1874589920043945
1747275457255715600,16.404715576171874,3.270479440689087,5.214571475982666,-5.420472621917725
1747275457271735300,16.4207353515625,3.5721490383148193,4.501099109649658,-6.739677906036377
1747275457287765000,16.436764892578125,4.4723687171936035,4.060565948486328,-7.924807548522949
1747275457303786000,16.452785888671876,4.884171485900879,3.3854012489318848,-7.920019149780273
1747275457319829800,16.468829833984376,5.183446884155273,3.0837318897247314,-7.24485445022583
1747275457335863000,16.484863037109374,5.066130638122559,3.3039982318878174,-6.988674640655518
1747275457351902700,16.50090283203125,5.197812080383301,3.4620156288146973,-8.027758598327637
1747275457367946800,16.51694677734375,5.714959621429443,3.4380736351013184,-8.403648376464844
1747275457383970300,16.53297021484375,5.846640586853027,3.7205893993377686,-7.797914981842041
1747275457399985200,16.548985107421874,5.889736175537109,4.32871675491333,-7.450755596160889
1747275457416003300,16.56500341796875,5.406107425689697,3.818751811981201,-7.800309181213379
1747275457432040400,16.58104052734375,5.286397457122803,3.114856481552124,-8.71489429473877
1747275457448081400,16.597081298828126,6.121973514556885,3.308786630630493,-9.718064308166504
1747275457464103000,16.61310302734375,7.084442615509033,4.462791919708252,-9.014169692993164
1747275457480140500,16.629140625,7.117961883544922,5.394136428833008,-7.453149795532227
1747275457496168000,16.64516796875,5.592854976654053,5.216965675354004,-6.275202751159668
1747275457512245200,16.661245361328124,4.551377296447754,5.190629482269287,-5.365406036376953
1747275457528269000,16.67726904296875,3.7876269817352295,5.623979568481445,-5.317522048950195
1747275457544286200,16.6932861328125,4.752490520477295,7.309497833251953,-5.013458251953125
1747275457560322600,16.709322509765624,2.5689783096313477,6.277596950531006,-4.8722004890441895
1747275457576310000,16.72531005859375,2.7246015071868896,5.51624059677124,-3.9049429893493652
1747275457592368400,16.741368408203126,1.1659762859344482,6.787561893463135,-3.998316764831543
1747275457608426200,16.75742626953125,-1.843535304069519,8.195352554321289,-3.845088005065918
1747275457624444000,16.77344384765625,-4.2544965744018555,7.975085735321045,-3.5482068061828613
1747275457640438800,16.789438720703124,-3.5889084339141846,8.418013572692871,-2.2361843585968018
1747275457656468000,16.805468017578125,0.6368576288223267,8.003816604614258,-3.1914708614349365
1747275457672508000,16.8215078125,2.22660756111145,7.108384609222412,-5.305551052093506
1747275457688534300,16.8375341796875,3.2537200450897217,6.4834980964660645,-7.694964408874512
1747275457704556300,16.853556396484375,2.762908697128296,7.580042362213135,-8.741230010986328
1747275457720594400,16.869594482421874,2.1499931812286377,8.061277389526367,-8.722076416015625
1747275457736585000,16.8855849609375,1.5298948287963867,8.489839553833008,-8.010998725891113
1747275457752564000,16.90156396484375,1.889025092124939,8.293514251708984,-5.458779811859131
1747275457768582100,16.91758203125,2.013523578643799,7.659051418304443,-3.7014358043670654
1747275457784602400,16.933602294921876,2.801215887069702,7.297526836395264,-3.0190882682800293
1747275457800599600,16.949599609375,3.6942532062530518,7.864952564239502,-3.0789434909820557
1747275457816634000,16.965634033203123,4.484339714050293,8.006210327148438,-2.8443117141723633
1747275457832653000,16.981653076171874,5.406107425689697,8.274360656738281,-1.9536685943603516
1747275457848679400,16.997679443359374,5.3342814445495605,8.35336971282959,-1.5418659448623657
1747275457864701400,17.013701416015625,4.934449672698975,8.180987358093262,-1.9847931861877441
1747275457880698600,17.02969873046875,3.821146011352539,8.04691219329834,-2.4851813316345215
1747275457896691200,17.045691162109375,2.9712042808532715,7.888894557952881,-1.8818424940109253
1747275457912707300,17.061707275390624,3.294421434402466,7.817068576812744,-1.048660397529602
1747275457928733000,17.07773291015625,4.829104900360107,7.661445617675781,-1.0055646896362305
1747275457944754200,17.093754150390627,5.947196960449219,7.41484260559082,-1.2761094570159912
1747275457960752600,17.109752685546876,6.138733386993408,7.577648162841797,-2.0661959648132324
1747275457976739000,17.125739013671875,5.676652431488037,8.257601737976074,-2.5091233253479004
1747275457992763100,17.14176318359375,6.311115741729736,6.897695064544678,-1.7286136150360107
1747275458008795400,17.15779541015625,7.390900611877441,7.503427982330322,-0.8762778043746948
1747275458024819200,17.173819091796876,7.036558628082275,7.331045627593994,-0.09816227108240128
1747275458040830500,17.18983056640625,6.88332986831665,7.079654216766357,-0.043095629662275314
1747275458056822800,17.20582275390625,6.976703643798828,6.818686485290527,1.1827356815338135
1747275458072878000,17.221878173828124,6.955155849456787,6.955155849456787,2.2218191623687744
1747275458088946000,17.23794580078125,7.275979042053223,7.285555839538574,3.404554843902588
1747275458104971500,17.253971435546877,7.266402244567871,5.710171222686768,3.1938650608062744
1747275458120968700,17.26996875,7.156269073486328,5.473145008087158,1.8267759084701538
1747275458136974300,17.285974365234374,7.350199222564697,6.1267619132995605,-0.26815059781074524
1747275458152993300,17.3019931640625,7.644686222076416,6.1770405769348145,-2.367865562438965
1747275458169017000,17.31801708984375,8.08282470703125,5.827486991882324,-1.987187385559082
1747275458184993300,17.3339931640625,7.785943984985352,5.95677375793457,0.35434186458587646
1747275458200986400,17.349986328125,7.216124057769775,5.540182590484619,1.3024457693099976
1747275458216981200,17.365981201171873,6.737283706665039,5.013458251953125,0.1412578970193863
1747275458232999200,17.381999267578124,5.832275390625,4.563348293304443,-0.35434186458587646
1747275458249013200,17.39801318359375,37.65839767456055,8.14028549194336,-0.13407529890537262
1747275458265037800,17.414037841796876,-1.3239935636520386,6.560112476348877,1.800439715385437
1747275458281076700,17.43007666015625,16.141708374023438,3.8786067962646484,-0.6847416758537292
1747275458297066200,17.446066162109375,4.144362926483154,5.9088897705078125,-0.3878606855869293
1747275458313194000,17.462194091796874,7.632715225219727,5.499481201171875,0.2106897532939911
1747275458337199900,17.486199951171876,7.156269073486328,5.590460777282715,0.14844051003456116
1747275458353208000,17.5022080078125,9.516951560974121,5.4659624099731445,0.13407529890537262
1747275458369209600,17.518209716796875,7.671022415161133,5.497087001800537,0.1173158809542656
1747275458385234400,17.534234375,7.795520782470703,5.571307182312012,0.2106897532939911
1747275458401247000,17.5502470703125,8.669404029846191,5.578489780426025,0.05267243832349777
1747275458417277700,17.566277587890625,7.943961143493652,4.81473970413208,0.2322375625371933
1747275458433305000,17.58230517578125,7.709329605102539,4.817133903503418,0.43095630407333374
1747275458449325300,17.5983251953125,8.123526573181152,5.056553840637207,-0.011971008032560349
1747275458465349000,17.61434912109375,7.922413349151611,4.584896087646484,-0.014365210197865963
1747275458481361700,17.630361572265624,9.023746490478516,4.644751071929932,0.8212111592292786
1747275458497395200,17.646395263671874,6.215347766876221,4.627991676330566,-1.2761094570159912
1747275458513427700,17.662427734375,9.461885452270508,4.651933670043945,0.033518824726343155
1747275458529433600,17.67843359375,10.1753568649292,4.486733913421631,1.6160861253738403
1747275458545462000,17.6944619140625,6.464344501495361,3.9193081855773926,-0.3998316824436188
1747275458561500400,17.71050048828125,12.155362129211426,3.993528366088867,-1.3982137441635132
1747275458577511000,17.726510986328126,10.5344877243042,4.888959884643555,1.501164436340332
1747275458593572000,17.742572021484374,4.611232280731201,4.843470096588135,-0.629675030708313
1747275458609583000,17.7585830078125,7.556100368499756,5.8657941818237305,0.21547815203666687
1747275458625609500,17.774609375,13.819332122802734,7.496245384216309,-0.1149216815829277
1747275458641649400,17.7906494140625,8.89685344696045,8.255207061767578,1.113303780555725
1747275458657658400,17.806658447265626,6.761225700378418,4.857835292816162,-0.1412578970193863
1747275458673721600,17.8227216796875,8.310274124145508,4.750096321105957,0.272938996553421
1747275458689729500,17.8387294921875,9.296685218811035,4.81473970413208,-0.05506663769483566
1747275458705758700,17.8547587890625,8.755595207214355,4.867412090301514,-0.0071826050989329815
1747275458721756200,17.870756103515625,8.063671112060547,4.831499099731445,0.2322375625371933
1747275458737793000,17.88679296875,8.425195693969727,4.900930881500244,0.0933738648891449
1747275458753825500,17.902825439453125,8.671798706054688,4.857835292816162,0.05746084079146385
1747275458769859800,17.91885986328125,8.585607528686523,4.807557106018066,0.08619125932455063
1747275458785885400,17.934885498046874,8.518569946289062,4.879383087158203,-0.22026655077934265
1747275458801897700,17.950897705078123,8.504204750061035,4.563348293304443,0.08379705995321274
1747275458817934600,17.9669345703125,8.487444877624512,4.819528102874756,0.16998831927776337
1747275458833971500,17.982971435546876,8.609549522399902,4.927267074584961,0.1843535304069519
1747275458849975000,17.99897509765625,8.576030731201172,4.862623691558838,0.026336219161748886
1747275458865998800,18.014998779296874,8.451532363891602,4.831499099731445,0.047884032130241394
1747275458882015200,18.03101513671875,8.492233276367188,4.786009311676025,0.24660277366638184
1747275458898049800,18.0470498046875,8.406042098999023,4.857835292816162,0.16519992053508759
1747275458914082300,18.063082275390624,8.300697326660156,4.829104900360107,0.038307227194309235
1747275458930125800,18.079125732421875,8.516175270080566,4.843470096588135,0.11013327538967133
1747275458946154200,18.095154296875,9.095572471618652,4.879383087158203,0.586579442024231
1747275458962173200,18.111173095703126,8.889671325683594,4.829104900360107,0.06224924325942993
1747275458978213400,18.12721337890625,8.604761123657227,4.817133903503418,-0.021547814831137657
1747275458994249700,18.143249755859376,8.619126319885254,4.797980308532715,0.014365210197865963
1747275459010276900,18.15927685546875,8.449137687683105,4.7836151123046875,0
1747275459026308000,18.17530810546875,8.628703117370605,4.786009311676025,-0.023942016065120697
1747275459042328800,18.191328857421876,8.5903959274292,4.797980308532715,0.002394201699644327
1747275459058395100,18.20739501953125,8.554482460021973,4.788403511047363,0.07182604819536209
1747275459074426000,18.223426025390626,8.583212852478027,4.821922302246094,0.06224924325942993
1747275459090483700,18.239483642578126,8.559270858764648,4.8267107009887695,0.06224924325942993
1747275459106509600,18.255509521484374,8.556877136230469,4.776432514190674,0.021547814831137657
1747275459122523600,18.271523681640623,8.576030731201172,4.759673118591309,0.002394201699644327
1747275459138556700,18.287556640625,8.607154846191406,4.793191909790039,0.009576806798577309
1747275459154592000,18.303592041015627,8.468291282653809,4.786009311676025,0.07182604819536209
1747275459170599000,18.319598876953126,8.508993148803711,4.81473970413208,0.07661445438861847
1747275459186625300,18.335625244140626,8.707711219787598,4.809951305389404,0.0454898327589035
1747275459202635300,18.35163525390625,8.65743350982666,4.776432514190674,0.026336219161748886
1747275459218673400,18.36767333984375,8.497021675109863,4.821922302246094,0.05267243832349777
1747275459234706400,18.38370654296875,8.461109161376953,4.802768707275391,0.040701430290937424
1747275459250721000,18.399720947265624,8.51138687133789,4.766855716705322,0.019153613597154617
1747275459266748000,18.415747802734376,8.645462036132812,4.802768707275391,0.002394201699644327
1747275459282758700,18.431758544921873,8.611943244934082,4.807557106018066,0.016759412363171577
1747275459298794000,18.4477939453125,8.49941635131836,4.807557106018066,0.05027823522686958
1747275459314824000,18.463823974609376,8.537723541259766,4.841075897216797,0.033518824726343155
1747275459330828300,18.479828369140623,8.583212852478027,4.800374507904053,-0.002394201699644327
1747275459346885600,18.4958857421875,8.53532886505127,4.793191909790039,0.004788403399288654
1747275459362901200,18.5119013671875,8.537723541259766,4.8051629066467285,-0.009576806798577309
1747275459378939400,18.527939453125,8.56645393371582,4.8051629066467285,0.016759412363171577
1747275459394972700,18.54397265625,8.547300338745117,4.81473970413208,0.0454898327589035
1747275459410976500,18.5599765625,8.571242332458496,4.819528102874756,0.0454898327589035
1747275459427006500,18.57600634765625,8.604761123657227,4.81473970413208,0.011971008032560349
1747275459443024100,18.592024169921874,8.549694061279297,4.778826713562012,0.016759412363171577
1747275459459058000,18.608057861328124,8.544905662536621,4.774038314819336,0.009576806798577309
1747275459475091500,18.624091552734374,8.595184326171875,4.797980308532715,0.009576806798577309
1747275459491099100,18.64009912109375,8.556877136230469,4.778826713562012,0.033518824726343155
1747275459507128000,18.656128173828126,8.564059257507324,4.817133903503418,0.05267243832349777
1747275459523145700,18.672145751953124,8.595184326171875,4.857835292816162,0.05746084079146385
1747275459539208200,18.688208251953125,8.549694061279297,4.807557106018066,0.033518824726343155
1747275459555238000,18.70423779296875,8.540117263793945,4.795586109161377,-0.009576806798577309
1747275459571251000,18.7202509765625,8.564059257507324,4.790797710418701,-0.002394201699644327
1747275459587277000,18.736277099609374,8.540117263793945,4.795586109161377,0.0071826050989329815
1747275459603292400,18.75229248046875,8.552088737487793,4.795586109161377,0.035913024097681046
1747275459619330300,18.768330322265626,8.588001251220703,4.809951305389404,0.028730420395731926
1747275459635367700,18.78436767578125,8.564059257507324,4.81473970413208,0.047884032130241394
1747275459651379000,18.80037890625,8.552088737487793,4.809951305389404,0.014365210197865963
1747275459667408000,18.816407958984374,8.576030731201172,4.795586109161377,0.023942016065120697
1747275459683422000,18.832421875,8.53293514251709,4.776432514190674,0.004788403399288654
1747275459699462100,18.848462158203127,8.540117263793945,4.790797710418701,0.019153613597154617
1747275459715497200,18.864497314453125,8.597578048706055,4.831499099731445,0.014365210197865963
1747275459731523000,18.880523193359377,8.571242332458496,4.802768707275391,0.043095629662275314
1747275459747553500,18.896553466796874,8.573636054992676,4.793191909790039,0.05027823522686958
1747275459763570700,18.91257080078125,8.571242332458496,4.797980308532715,0.026336219161748886
1747275459779610400,18.9286103515625,8.549694061279297,4.788403511047363,0.023942016065120697
1747275459795648800,18.944648681640626,8.552088737487793,4.7836151123046875,0.002394201699644327
1747275459811657700,18.96065771484375,8.573636054992676,4.7836151123046875,0.016759412363171577
1747275459827722800,18.97672265625,8.578424453735352,4.807557106018066,0.033518824726343155
1747275459843741000,18.992740966796877,8.561665534973145,4.807557106018066,0.028730420395731926
1747275459859776500,19.008776611328123,8.56645393371582,4.8267107009887695,0.019153613597154617
1747275459875811000,19.02481103515625,8.554482460021973,4.802768707275391,0.026336219161748886
1747275459891831300,19.040831298828124,8.554482460021973,4.778826713562012,0.011971008032560349
1747275459907861500,19.056861572265625,8.56645393371582,4.776432514190674,0.014365210197865963
1747275459923881700,19.0728818359375,8.542511940002441,4.790797710418701,-0.002394201699644327
1747275459939920000,19.088919921875,8.561665534973145,4.821922302246094,0.023942016065120697
1747275459955956000,19.1049560546875,8.578424453735352,4.838681697845459,0.033518824726343155
1747275459971961600,19.120961669921876,8.564059257507324,4.812345504760742,0.040701430290937424
1747275459987988200,19.13698828125,8.56645393371582,4.809951305389404,0.019153613597154617
1747275460004001300,19.153001220703125,8.547300338745117,4.795586109161377,-0.009576806798577309
1747275460020068600,19.169068603515626,8.547300338745117,4.795586109161377,0.014365210197865963
1747275460036108300,19.1851083984375,8.556877136230469,4.809951305389404,0.026336219161748886
1747275460052137500,19.201137451171874,8.580819129943848,4.802768707275391,0.016759412363171577
1747275460068164000,19.2171640625,8.571242332458496,4.831499099731445,0.014365210197865963
1747275460084178000,19.233177978515624,8.583212852478027,4.812345504760742,0.023942016065120697
1747275460100214000,19.249214111328126,8.564059257507324,4.793191909790039,0.023942016065120697
1747275460116243700,19.26524365234375,8.56645393371582,4.774038314819336,0.002394201699644327
1747275460132248800,19.281248779296874,8.56884765625,4.790797710418701,0.016759412363171577
1747275460148278000,19.297278076171875,8.556877136230469,4.797980308532715,0.026336219161748886
1747275460164299000,19.313299072265625,8.56645393371582,4.809951305389404,0.043095629662275314
1747275460180336600,19.329336669921876,8.585607528686523,4.817133903503418,0.026336219161748886
1747275460196372200,19.345372314453126,8.56645393371582,4.809951305389404,0.023942016065120697
1747275460212397300,19.361397216796874,8.564059257507324,4.802768707275391,0.0071826050989329815
1747275460228427000,19.377427001953127,8.554482460021973,4.776432514190674,0.004788403399288654
1747275460244440600,19.393440673828124,8.547300338745117,4.7836151123046875,0.0071826050989329815
1747275460260476700,19.4094765625,8.552088737487793,4.802768707275391,0.019153613597154617
1747275460276510500,19.425510498046876,8.578424453735352,4.821922302246094,0.035913024097681046
1747275460292515600,19.441515625,8.573636054992676,4.807557106018066,0.014365210197865963
1747275460308574000,19.457573974609375,8.56645393371582,4.7836151123046875,0.014365210197865963
1747275460324588000,19.473588134765624,8.573636054992676,4.793191909790039,0.011971008032560349
1747275460340644000,19.48964404296875,8.578424453735352,4.800374507904053,0
1747275460356674300,19.50567431640625,8.554482460021973,4.786009311676025,-0.011971008032560349
1747275460372701700,19.52170166015625,8.571242332458496,4.817133903503418,0.0454898327589035
1747275460388728000,19.53772802734375,8.556877136230469,4.8051629066467285,0.05027823522686958
1747275460404744400,19.553744384765626,8.559270858764648,4.819528102874756,0.026336219161748886
1747275460420779000,19.569779052734376,8.578424453735352,4.800374507904053,0.026336219161748886
1747275460436812000,19.58581201171875,8.559270858764648,4.793191909790039,-0.019153613597154617
1747275460452818400,19.601818359375,8.547300338745117,4.793191909790039,0.009576806798577309
1747275460468847000,19.61784716796875,8.559270858764648,4.819528102874756,0
1747275460484859100,19.633859130859374,8.56645393371582,4.8051629066467285,0.028730420395731926
1747275460500932600,19.6499326171875,8.56884765625,4.812345504760742,0.028730420395731926
1747275460516969000,19.665968994140623,8.583212852478027,4.790797710418701,0.019153613597154617
1747275460533000400,19.68200048828125,8.549694061279297,4.807557106018066,0.019153613597154617
1747275460549024000,19.69802392578125,8.559270858764648,4.797980308532715,-0.002394201699644327
1747275460565039600,19.71403955078125,8.576030731201172,4.797980308532715,0.011971008032560349
1747275460581084000,19.730083984375,8.56645393371582,4.790797710418701,0.021547814831137657
1747275460597110800,19.74611083984375,8.573636054992676,4.790797710418701,0.019153613597154617
1747275460613117000,19.762116943359374,8.552088737487793,4.819528102874756,0.043095629662275314
1747275460629146400,19.778146484375,8.576030731201172,4.802768707275391,0.033518824726343155
1747275460645158100,19.794158203125,8.56884765625,4.8051629066467285,0.026336219161748886
1747275460661188400,19.810188232421876,8.561665534973145,4.793191909790039,0.009576806798577309
1747275460677225700,19.826225830078126,8.559270858764648,4.790797710418701,0.016759412363171577
1747275460693289000,19.8422890625,8.544905662536621,4.81473970413208,0.011971008032560349
1747275460709319400,19.8583193359375,8.554482460021973,4.800374507904053,0.035913024097681046
1747275460725334500,19.87433447265625,8.564059257507324,4.807557106018066,0.023942016065120697
1747275460741371000,19.890370849609376,8.578424453735352,4.809951305389404,0.019153613597154617
1747275460757407200,19.9064072265625,8.573636054992676,4.807557106018066,0.021547814831137657
1747275460773413600,19.92241357421875,8.554482460021973,4.797980308532715,0.031124621629714966
1747275460789482500,19.938482421875,8.547300338745117,4.790797710418701,0.011971008032560349
1747275460805498000,19.954498046875,8.564059257507324,4.795586109161377,0.023942016065120697
1747275460821532700,19.97053271484375,8.554482460021973,4.795586109161377,0.035913024097681046
1747275460837563100,19.986563232421876,8.585607528686523,4.8051629066467285,0.043095629662275314
1747275460853591800,20.002591796875,8.564059257507324,4.790797710418701,0.019153613597154617
1747275460869617700,20.01861767578125,8.576030731201172,4.788403511047363,0.004788403399288654
1747275460885633800,20.0346337890625,8.578424453735352,4.78122091293335,0.011971008032560349
1747275460901669000,20.050669189453124,8.564059257507324,4.797980308532715,0.014365210197865963
1747275460917705500,20.06670556640625,8.556877136230469,4.802768707275391,0.043095629662275314
1747275460933710000,20.0827099609375,8.564059257507324,4.824316501617432,0.035913024097681046
1747275460949733000,20.098733154296873,8.578424453735352,4.821922302246094,0.035913024097681046
1747275460965743600,20.11474365234375,8.578424453735352,4.812345504760742,0.026336219161748886
1747275460981828400,20.130828369140627,8.56884765625,4.802768707275391,0.023942016065120697
1747275460997864400,20.146864501953125,8.549694061279297,4.793191909790039,0.035913024097681046
1747275461013909200,20.1629091796875,8.559270858764648,4.807557106018066,0.011971008032560349
1747275461029936600,20.1789365234375,8.554482460021973,4.793191909790039,0.019153613597154617
1747275461045958100,20.194958251953125,8.552088737487793,4.807557106018066,0.026336219161748886
1747275461061992000,20.210991943359375,8.561665534973145,4.802768707275391,0.021547814831137657
1747275461078021400,20.227021484375,8.580819129943848,4.807557106018066,0.0071826050989329815
